timestamp_ms,accel_x_g,accel_y_g,accel_z_g,gyro_x_dps,gyro_y_dps,gyro_z_dps,pressure_kpa,accel_lp_x_g,accel_lp_y_g,accel_lp_z_g
859387,-1.777000,-4.805000,7.968000,-0.720000,1.030000,-0.320000,101.800,4.828000,1.889000,-7.504000
859397,-1.923000,-5.068000,8.301000,-0.500000,1.120000,-0.310000,101.800,4.669000,2.325000,-7.583000
859407,-2.500000,-4.705000,8.112000,-0.210000,1.240000,-0.420000,101.800,4.436000,3.034000,-7.465000
859417,-3.967000,-4.203000,7.680000,-0.030000,1.330000,-0.610000,101.800,4.066000,3.879000,-7.421000
859427,-2.776000,-3.985000,8.145000,-0.020000,1.340000,-0.820000,101.800,3.943000,2.294000,-8.039000
859437,-1.670000,-4.288000,8.521000,-0.150000,1.300000,-0.920000,101.800,4.411000,1.671000,-8.169000
859447,-1.810000,-4.786000,8.416000,-0.270000,1.190000,-0.810000,101.800,4.612000,1.865000,-8.007000
859457,-2.275000,-4.782000,8.402000,-0.320000,1.040000,-0.630000,101.800,4.710000,2.205000,-8.154000
859467,-2.708000,-4.646000,8.626000,-0.410000,0.830000,-0.490000,101.800,4.563000,2.642000,-8.333000
859477,-2.919000,-4.717000,9.263000,-0.550000,0.600000,-0.380000,101.800,3.580000,1.453000,-10.367000
859496,-1.412000,-3.671000,10.405000,-1.260000,-1.200000,0.160000,101.800,3.781000,1.401000,-9.041000
859506,-1.799000,-5.334000,7.618000,-0.940000,-1.140000,0.150000,101.800,5.487000,2.659000,-6.225000
859516,-4.158000,-6.164000,6.249000,-0.360000,-0.140000,0.160000,101.800,5.551000,5.098000,-5.772000
859526,-5.326000,-6.718000,6.201000,0.160000,1.090000,-0.110000,101.800,6.632000,5.402000,-5.754000
859536,-4.693000,-5.664000,5.501000,0.190000,1.370000,-0.530000,101.800,5.188000,4.223000,-5.355000
859546,-3.501000,-4.240000,5.734000,-0.030000,1.240000,-0.450000,101.800,4.301000,3.328000,-5.924000
859556,-3.168000,-4.109000,6.325000,-0.400000,1.350000,-0.240000,101.800,4.240000,3.252000,-6.326000
859566,-3.615000,-4.762000,6.791000,-0.790000,1.530000,-0.140000,101.800,4.786000,3.602000,-6.585000
859576,-4.204000,-5.522000,7.275000,-0.920000,1.570000,-0.050000,101.800,5.350000,4.218000,-6.625000
859586,-4.309000,-5.797000,7.415000,-0.660000,1.400000,-0.090000,101.800,5.487000,4.147000,-6.730000
859600,-4.353000,-5.364000,7.646000,-0.320000,1.110000,-0.140000,101.800,5.164000,4.313000,-7.254000
859610,-4.055000,-5.132000,8.065000,-0.220000,0.820000,-0.130000,101.800,5.053000,3.772000,-7.580000
859620,-3.680000,-5.219000,7.943000,-0.230000,0.580000,-0.120000,101.800,5.080000,3.713000,-7.475000
859630,-3.784000,-5.251000,7.658000,-0.210000,0.420000,-0.110000,101.800,5.112000,3.732000,-7.227000
859640,-3.577000,-5.211000,7.206000,-0.220000,0.260000,-0.130000,101.800,5.066000,3.460000,-6.774000
859650,-3.466000,-5.105000,6.828000,-0.230000,0.140000,-0.100000,101.800,4.977000,3.468000,-6.470000
859660,-3.481000,-5.206000,6.631000,-0.220000,0.100000,-0.050000,101.800,5.095000,3.384000,-6.254000
859670,-3.608000,-5.373000,6.671000,-0.170000,0.100000,-0.010000,101.800,5.191000,3.644000,-6.323000
859680,-3.653000,-5.361000,6.616000,-0.120000,0.150000,0.000000,101.800,5.223000,3.558000,-6.277000
859690,-3.770000,-5.254000,6.688000,-0.120000,0.220000,0.050000,101.800,5.171000,3.772000,-6.411000
859707,-4.213000,-5.622000,7.158000,-0.190000,0.310000,0.070000,101.800,5.465000,4.142000,-6.732000
859717,-4.022000,-5.767000,7.252000,-0.180000,0.250000,0.050000,101.800,5.654000,3.926000,-6.860000
859727,-3.816000,-5.824000,7.336000,-0.130000,0.160000,0.020000,101.800,5.637000,3.816000,-6.840000
859737,-3.759000,-5.772000,7.327000,-0.020000,0.050000,0.000000,101.800,5.602000,3.767000,-6.816000
859747,-3.702000,-5.572000,7.203000,0.090000,-0.030000,0.000000,101.800,5.460000,3.683000,-6.772000
859757,-3.590000,-5.521000,7.187000,0.140000,-0.050000,0.010000,101.800,5.441000,3.580000,-6.830000
859767,-2.935000,-5.357000,7.536000,0.100000,-0.090000,0.020000,101.800,5.375000,2.985000,-7.223000
859777,-1.301000,-4.279000,8.286000,-0.160000,-0.470000,0.150000,101.800,4.360000,0.992000,-8.478000
859787,-5.208000,-5.467000,7.647000,-0.570000,-0.970000,0.320000,101.800,4.995000,6.409000,-6.132000
859799,-3.141000,-6.621000,6.926000,0.280000,-0.520000,0.140000,101.800,6.223000,2.943000,-6.367000
859809,-4.570000,-5.987000,6.159000,0.500000,-0.170000,-0.020000,101.800,5.845000,4.772000,-6.044000
859819,-5.004000,-5.359000,5.949000,0.350000,-0.250000,-0.080000,101.800,5.372000,4.708000,-5.622000
859829,-4.270000,-4.202000,5.424000,0.470000,0.000000,0.120000,101.800,4.053000,4.139000,-5.326000
859839,-4.181000,-6.064000,6.586000,0.270000,0.310000,0.330000,101.800,5.818000,4.367000,-6.156000
859849,-3.533000,-6.674000,7.854000,0.310000,0.180000,0.200000,101.800,6.306000,3.664000,-6.992000
859859,-3.341000,-5.024000,7.303000,0.660000,-0.110000,0.020000,101.800,4.982000,3.421000,-6.708000
859869,-3.785000,-4.635000,6.700000,0.900000,-0.310000,-0.010000,101.800,4.620000,3.686000,-6.492000
859879,-3.945000,-5.078000,7.215000,0.840000,-0.380000,0.000000,101.800,5.007000,3.816000,-6.909000
859889,-3.898000,-4.969000,7.598000,0.670000,-0.330000,0.080000,101.800,4.828000,3.781000,-7.230000
859900,-4.077000,-5.552000,7.803000,0.600000,-0.230000,0.110000,101.800,5.279000,4.151000,-7.372000
859910,-3.917000,-6.012000,7.519000,0.650000,-0.230000,-0.020000,101.800,5.757000,3.911000,-7.073000
859920,-3.947000,-5.712000,7.409000,0.730000,-0.420000,-0.140000,101.800,5.595000,3.992000,-7.012000
859930,-4.000000,-5.269000,7.313000,0.770000,-0.610000,-0.250000,101.800,5.188000,4.036000,-6.938000
859940,-3.133000,-6.077000,7.576000,0.900000,-0.670000,-0.280000,101.800,5.916000,3.264000,-6.750000
859950,-3.580000,-5.180000,8.157000,1.370000,-0.710000,-0.310000,101.800,5.102000,3.453000,-7.355000
859960,-3.594000,-3.556000,8.376000,1.490000,-0.820000,-0.220000,101.800,3.884000,3.495000,-8.245000
859970,-3.077000,-3.317000,8.217000,1.030000,-0.650000,-0.110000,101.800,3.326000,3.090000,-8.264000
859980,-3.209000,-4.854000,8.360000,0.950000,-0.550000,-0.010000,101.800,4.112000,3.063000,-7.353000
859990,-3.432000,-5.259000,8.456000,1.700000,-1.120000,0.000000,101.800,4.902000,3.176000,-7.598000
860001,-3.123000,-4.302000,8.171000,2.060000,-1.300000,0.150000,101.800,4.431000,3.112000,-7.872000
860011,-3.433000,-3.602000,7.859000,2.030000,-1.270000,0.080000,101.800,3.355000,3.556000,-7.250000
860021,-3.054000,-4.362000,8.758000,2.230000,-1.380000,-0.180000,101.800,3.995000,3.252000,-8.240000
860031,-2.684000,-4.594000,8.999000,2.100000,-1.140000,-0.260000,101.800,4.610000,2.980000,-8.889000
860041,-2.704000,-3.404000,8.965000,1.550000,-0.790000,-0.220000,101.800,3.698000,2.617000,-9.058000
860051,-2.669000,-3.327000,8.180000,1.320000,-0.650000,0.000000,101.800,3.156000,2.563000,-7.965000
860061,-3.276000,-3.627000,8.614000,1.300000,-0.530000,-0.030000,101.800,3.473000,3.225000,-8.372000
860071,-2.944000,-3.312000,8.779000,1.130000,-0.480000,-0.020000,101.800,3.348000,2.946000,-8.355000
860081,-2.685000,-3.083000,9.028000,1.070000,-0.440000,-0.020000,101.800,3.029000,2.865000,-8.546000
860091,-2.458000,-2.931000,9.398000,0.990000,-0.400000,-0.030000,101.800,2.958000,2.605000,-9.056000
860102,-2.064000,-2.734000,9.440000,0.830000,-0.370000,-0.010000,101.800,2.730000,2.286000,-9.152000
860112,-1.711000,-2.839000,9.326000,0.680000,-0.440000,0.000000,101.800,2.754000,1.946000,-9.068000
860122,-1.661000,-2.827000,9.228000,0.610000,-0.490000,-0.040000,101.800,2.779000,1.737000,-8.921000
860132,-1.394000,-2.680000,9.307000,0.580000,-0.450000,-0.040000,101.800,2.649000,1.647000,-8.938000
860142,-1.433000,-2.776000,9.277000,0.390000,-0.300000,0.080000,101.800,2.651000,1.154000,-9.259000
860152,-2.490000,-3.031000,9.062000,0.110000,-0.100000,0.200000,101.800,2.933000,2.240000,-8.838000
860162,-2.059000,-2.914000,9.089000,0.130000,-0.030000,0.130000,101.800,2.828000,2.379000,-8.644000
860172,-1.666000,-2.187000,8.929000,0.350000,-0.030000,0.070000,101.800,2.446000,1.808000,-8.470000
860182,-1.640000,-1.826000,9.205000,0.460000,-0.030000,0.130000,101.800,1.963000,1.806000,-8.600000
860192,-1.103000,-1.516000,9.428000,0.600000,-0.040000,0.140000,101.800,1.593000,1.468000,-8.723000
860204,-1.419000,-1.611000,9.178000,0.750000,-0.190000,0.140000,101.800,1.404000,1.134000,-8.958000
860214,-2.195000,-3.229000,9.037000,0.800000,-0.490000,0.090000,101.800,1.955000,2.115000,-8.323000
860224,-2.667000,-4.303000,9.768000,0.610000,-0.490000,-0.030000,101.800,3.742000,2.433000,-9.269000
860234,-2.655000,-4.646000,10.473000,0.470000,-0.290000,-0.110000,101.800,4.480000,2.857000,-9.681000
860244,-2.102000,-3.206000,9.808000,0.580000,-0.160000,-0.060000,101.800,3.946000,2.348000,-9.725000
860254,-1.701000,-1.981000,9.031000,0.600000,-0.140000,-0.070000,101.800,2.419000,2.066000,-9.058000
860264,-0.914000,-2.515000,8.315000,0.600000,-0.010000,0.110000,101.800,2.286000,1.348000,-8.235000
860284,-1.000000,-2.481000,10.091000,0.890000,0.700000,0.510000,101.800,2.382000,0.632000,-9.350000
860294,-2.729000,-1.828000,10.761000,0.510000,1.270000,0.500000,101.800,2.365000,1.833000,-10.578000
860305,-3.559000,-1.027000,10.591000,-0.200000,1.850000,0.620000,101.800,1.703000,3.053000,-10.906000
860315,-5.002000,-0.576000,11.078000,-0.780000,2.300000,0.990000,101.800,0.879000,3.593000,-10.615000
860325,-7.606000,-2.335000,13.707000,-0.990000,2.380000,1.610000,101.800,0.877000,5.487000,-11.666000
860335,-8.637000,-4.419000,14.458000,-0.730000,1.780000,1.950000,101.800,3.316000,7.627000,-13.274000
860345,-9.399000,-4.201000,14.948000,-0.660000,0.880000,1.800000,101.800,3.977000,8.568000,-13.433000
860355,-9.911000,-4.649000,15.509000,-0.280000,-0.020000,1.560000,101.800,4.019000,9.438000,-14.294000
860365,-9.997000,-5.121000,14.271000,0.090000,-0.740000,1.230000,101.800,4.828000,9.968000,-13.764000
860375,-9.824000,-4.008000,13.633000,0.260000,-1.060000,0.990000,101.800,4.360000,9.855000,-13.277000
860385,-10.358000,-4.216000,13.072000,0.080000,-0.830000,0.920000,101.800,3.997000,10.046000,-13.090000
860395,-11.148000,-5.492000,13.003000,-0.550000,-0.030000,0.710000,101.800,4.781000,10.772000,-12.970000
860406,-13.351000,-6.782000,14.476000,-1.390000,1.010000,0.240000,101.800,5.894000,12.522000,-13.600000
860416,-15.984000,-7.118000,16.193000,-1.740000,1.880000,-0.350000,101.800,6.568000,14.728000,-14.840000
860426,-19.114000,-7.547000,18.204000,-2.140000,2.510000,-1.350000,101.800,7.267000,17.649000,-15.536000
860436,-19.613000,-8.069000,19.613000,-2.920000,2.350000,-2.350000,101.800,7.634000,20.076000,-20.078000
860446,-19.584000,-7.102000,19.613000,-3.560000,1.470000,-3.330000,101.800,7.125000,20.076000,-20.078000
860456,-19.596000,-6.939000,19.580000,-4.080000,0.790000,-4.240000,101.800,6.590000,20.076000,-20.078000
860466,-19.613000,-7.115000,19.613000,-4.580000,0.430000,-5.020000,101.800,6.566000,20.076000,-20.078000
860476,-19.613000,-7.304000,19.613000,-5.210000,0.720000,-6.030000,101.800,6.536000,20.076000,-20.078000
860486,-19.613000,-6.684000,19.612000,-5.840000,1.290000,-7.250000,101.800,6.382000,20.076000,-20.078000
860496,-19.613000,-3.960000,19.613000,-6.060000,1.580000,-8.720000,101.800,4.522000,20.076000,-20.078000
860508,-19.613000,2.369000,19.613000,-5.990000,1.150000,-8.720000,101.800,0.710000,20.076000,-20.078000
860518,-19.613000,9.715000,19.613000,-5.990000,0.170000,-8.720000,101.800,-6.823000,20.076000,-20.078000
860528,-19.528000,17.879000,19.521000,-6.030000,-1.150000,-8.720000,101.800,-13.870000,20.076000,-20.078000
860538,-16.197000,19.613000,15.565000,-6.330000,-2.380000,-8.720000,101.800,-20.078000,20.076000,-18.252000
860548,-8.153000,19.566000,8.514000,-6.890000,-2.720000,-8.720000,101.800,-20.078000,14.985000,-12.284000
860558,5.478000,19.560000,2.470000,-7.200000,-1.980000,-8.720000,101.800,-20.078000,-10.193000,0.041000
860568,19.613000,19.613000,-19.342000,-6.100000,-0.050000,-8.720000,101.800,-20.078000,-20.078000,20.076000
860578,19.323000,19.612000,-19.613000,-4.270000,-0.670000,-5.050000,101.800,-20.078000,-20.078000,20.076000
860588,19.613000,19.613000,-19.446000,-0.320000,-2.660000,2.310000,101.800,-20.078000,-20.078000,19.095000
860598,8.707000,19.613000,-11.450000,8.080000,-3.110000,8.720000,101.800,-20.078000,1.485000,1.311000
860641,-15.901000,19.613000,6.392000,8.720000,-2.250000,8.720000,101.800,-20.078000,14.554000,-10.615000
860651,-19.613000,19.613000,19.613000,8.720000,-1.740000,8.720000,101.800,-20.078000,20.076000,-20.078000
860661,-19.396000,19.613000,19.613000,8.720000,-0.720000,8.720000,101.800,-20.078000,20.076000,-20.078000
860671,-19.485000,15.738000,19.372000,8.720000,0.420000,8.720000,101.800,-13.333000,20.076000,-20.078000
860681,-19.613000,-3.864000,19.606000,7.000000,-0.980000,8.720000,101.800,1.941000,20.076000,-20.078000
860691,-19.613000,-13.457000,19.613000,5.380000,-3.560000,8.720000,101.800,7.063000,20.076000,-20.078000
860701,-19.610000,-17.758000,19.609000,3.730000,-4.010000,8.300000,101.800,13.348000,20.076000,-20.078000
860711,-19.613000,-19.613000,19.612000,1.290000,-2.550000,7.040000,101.800,20.005000,20.076000,-20.078000
860721,-19.613000,-19.613000,19.613000,-1.050000,-1.220000,4.730000,101.800,20.076000,20.076000,-20.078000
860731,-19.613000,-19.564000,19.409000,-1.990000,-0.850000,2.160000,101.800,20.076000,20.076000,-15.318000
860741,-19.613000,-19.613000,15.112000,-1.980000,-0.650000,0.130000,101.800,20.076000,20.076000,-10.720000
860751,-19.613000,-19.604000,9.953000,-2.080000,0.050000,-1.610000,101.800,20.076000,20.076000,-8.664000
860761,-19.613000,-17.711000,9.052000,-2.240000,0.860000,-3.190000,101.800,16.752000,20.076000,-8.428000
860771,-19.613000,-12.989000,9.780000,-2.030000,1.180000,-4.570000,101.800,12.083000,20.076000,-8.595000
860781,-19.458000,-8.432000,10.302000,-1.430000,0.980000,-5.690000,101.800,7.639000,20.076000,-9.022000
860791,-15.869000,-4.936000,10.637000,-0.810000,0.900000,-6.450000,101.800,4.470000,15.456000,-10.208000
860801,-10.193000,-2.754000,12.663000,-0.690000,1.560000,-6.850000,101.800,2.404000,10.438000,-12.985000
860811,-6.327000,-1.210000,16.294000,-1.190000,2.490000,-6.980000,101.800,0.926000,6.245000,-16.561000
860821,-5.171000,-0.443000,19.613000,-1.920000,3.110000,-6.710000,101.800,0.325000,5.017000,-20.078000
860831,-5.797000,-1.264000,19.613000,-2.670000,3.330000,-6.120000,101.800,1.110000,5.492000,-20.078000
860850,-7.585000,-1.960000,19.558000,-3.340000,3.340000,-5.760000,101.800,1.531000,7.566000,-20.078000
860860,-11.186000,-2.490000,19.608000,-4.260000,3.620000,-5.720000,101.800,1.933000,14.603000,-20.078000
860870,-14.057000,-2.657000,19.613000,-5.500000,4.000000,-6.250000,101.800,-0.642000,18.220000,-20.078000
860880,-17.249000,-0.423000,19.612000,-6.730000,4.440000,-7.460000,101.800,-4.377000,19.862000,-20.078000
860890,-19.088000,3.185000,19.613000,-7.790000,4.910000,-8.720000,101.800,-10.561000,19.171000,-20.078000
860900,-18.271000,9.062000,19.613000,-8.450000,4.900000,-8.720000,101.800,-20.078000,16.764000,-18.946000
860910,-16.088000,18.037000,19.503000,-8.330000,4.010000,-8.720000,101.800,-20.078000,9.512000,-14.061000
860920,-8.713000,19.613000,15.748000,-7.420000,1.810000,-8.720000,101.800,-20.078000,-7.845000,-4.247000
860930,9.056000,19.539000,4.847000,-6.270000,-0.900000,-8.720000,101.800,-20.078000,-20.078000,8.223000
860940,19.613000,19.560000,-12.374000,-4.950000,-2.580000,-8.720000,101.800,-20.078000,-20.078000,17.887000
860963,19.613000,19.612000,-19.428000,1.070000,1.100000,6.080000,101.800,-20.078000,-20.078000,20.076000
860973,19.613000,19.613000,-19.571000,3.850000,0.650000,8.720000,101.800,-20.078000,-20.078000,12.686000
860983,11.880000,19.613000,-12.993000,7.160000,-1.680000,8.720000,101.800,-20.078000,-2.002000,1.196000
860993,-17.358000,19.613000,7.818000,8.720000,-2.720000,8.720000,101.800,-20.078000,11.985000,-7.326000
861003,-19.613000,19.613000,19.613000,8.720000,-1.890000,8.720000,101.800,-20.078000,20.076000,-20.078000
861013,-19.202000,19.499000,19.613000,8.720000,-0.270000,8.720000,101.800,-20.078000,20.076000,-20.078000
861023,-19.502000,-1.399000,19.329000,7.290000,-0.090000,8.720000,101.800,-9.208000,20.076000,-20.078000
861033,-19.613000,-19.613000,19.613000,3.470000,-2.950000,8.720000,101.800,3.183000,20.076000,-20.078000
861043,-19.609000,-19.613000,19.613000,3.050000,-4.660000,7.660000,101.800,8.590000,20.076000,-20.078000
861055,-19.610000,-19.178000,19.607000,2.790000,-3.720000,5.630000,101.800,17.365000,20.076000,-20.078000
861065,-19.613000,-19.613000,19.613000,0.800000,-2.180000,3.850000,101.800,20.076000,20.076000,-20.078000
861075,-19.613000,-19.613000,19.497000,-1.250000,-1.260000,1.030000,101.800,20.076000,20.076000,-15.134000
861085,-19.613000,-19.604000,16.129000,-2.080000,-0.640000,-1.520000,101.800,20.076000,20.076000,-11.267000
861095,-19.613000,-19.592000,12.091000,-2.440000,0.160000,-3.380000,101.800,20.076000,20.076000,-10.078000
861105,-19.613000,-17.460000,11.530000,-2.930000,1.170000,-4.770000,101.800,17.843000,20.076000,-10.480000
861115,-19.613000,-13.239000,12.520000,-3.160000,2.090000,-6.000000,101.800,13.929000,20.076000,-11.318000
861125,-19.613000,-9.250000,14.427000,-2.980000,2.660000,-7.250000,101.800,9.936000,20.076000,-12.757000
861135,-19.613000,-4.378000,16.654000,-2.730000,2.950000,-8.360000,101.800,5.267000,20.076000,-14.909000
861145,-19.519000,-0.443000,19.072000,-2.700000,3.230000,-8.720000,101.800,0.933000,20.076000,-17.576000
861156,-18.240000,1.048000,19.613000,-3.020000,3.550000,-8.720000,101.800,-1.149000,18.649000,-20.078000
861166,-17.293000,2.160000,19.601000,-3.670000,3.690000,-8.720000,101.800,-2.379000,17.416000,-20.078000
861176,-18.402000,4.348000,19.597000,-4.500000,3.510000,-8.720000,101.800,-4.279000,18.291000,-20.078000
861186,-19.132000,8.060000,19.613000,-5.290000,2.850000,-8.720000,101.800,-7.514000,19.402000,-20.078000
861196,-18.845000,13.191000,19.613000,-5.890000,2.210000,-8.720000,101.800,-12.250000,19.752000,-20.078000
861206,-17.026000,18.748000,19.570000,-6.600000,1.900000,-8.720000,101.800,-17.938000,18.438000,-20.078000
861216,-14.218000,19.613000,17.796000,-7.320000,1.760000,-8.720000,101.800,-20.078000,15.877000,-18.598000
861226,-11.182000,19.566000,14.298000,-7.700000,1.590000,-8.720000,101.800,-20.078000,12.531000,-15.421000
861236,-6.389000,19.583000,9.654000,-7.780000,1.250000,-8.720000,101.800,-20.078000,8.458000,-11.497000
861246,1.391000,19.613000,3.502000,-7.860000,1.000000,-8.720000,101.800,-20.078000,2.058000,-6.527000
861257,12.504000,19.613000,-5.093000,-8.020000,0.930000,-8.720000,101.800,-20.078000,-6.781000,0.808000
861267,19.613000,19.612000,-15.486000,-7.160000,1.180000,-8.720000,101.800,-20.078000,-16.009000,9.632000
861277,19.613000,19.613000,-19.613000,-4.430000,1.710000,-8.030000,101.800,-20.078000,-20.078000,14.946000
861287,19.453000,19.613000,-19.613000,-0.410000,1.820000,-3.200000,101.800,-20.078000,-20.078000,15.223000
861297,19.613000,19.613000,-19.498000,3.150000,1.090000,3.550000,101.800,-20.078000,-20.078000,11.460000
861307,19.613000,19.613000,-16.056000,5.720000,-0.770000,8.720000,101.800,-20.078000,-20.078000,6.154000
861317,16.393000,19.613000,-5.714000,8.320000,-3.030000,8.720000,101.800,-20.078000,-9.889000,-2.414000
861327,-11.327000,19.613000,9.011000,8.720000,-3.920000,8.720000,101.800,-20.078000,6.044000,-9.117000
861337,-19.613000,19.613000,19.613000,8.720000,-2.910000,8.720000,101.800,-20.078000,17.556000,-13.752000
861347,-19.491000,19.613000,19.613000,8.720000,-1.550000,8.720000,101.800,-20.078000,20.076000,-20.078000
861358,-19.369000,13.400000,19.382000,8.720000,-2.270000,8.720000,101.800,-20.078000,20.076000,-20.078000
861368,-19.613000,-5.020000,19.613000,8.720000,-4.590000,8.720000,101.800,-6.027000,20.076000,-20.078000
861378,-19.613000,-10.434000,19.613000,6.690000,-4.380000,8.720000,101.800,-0.115000,20.076000,-20.078000
861388,-19.607000,-19.424000,19.608000,3.340000,-2.010000,8.720000,101.800,6.965000,20.076000,-20.078000
861398,-19.613000,-19.613000,19.613000,0.250000,-0.510000,8.720000,101.800,18.098000,20.076000,-20.078000
861408,-19.613000,-19.466000,19.217000,-2.450000,-0.670000,6.180000,101.800,20.076000,20.076000,-20.078000
861418,-19.613000,-19.591000,10.993000,-3.270000,-0.840000,3.750000,101.800,20.076000,20.076000,-11.304000
861428,-19.613000,-19.613000,2.585000,-2.430000,-0.960000,1.850000,101.800,20.076000,20.076000,-2.610000
861438,-19.613000,-18.581000,-0.086000,-1.480000,-1.250000,0.410000,101.800,20.076000,20.076000,-0.470000
861448,-19.613000,-13.845000,-1.778000,-1.060000,-0.810000,-0.130000,101.800,16.531000,20.076000,1.637000
861460,-19.613000,-11.932000,1.403000,-0.660000,0.490000,-0.460000,101.800,12.279000,20.076000,1.830000
861470,-19.434000,-15.064000,7.075000,-0.500000,1.700000,-1.450000,101.800,13.228000,20.076000,-3.764000
861480,-16.398000,-12.594000,9.544000,-0.890000,1.990000,-3.300000,101.800,14.541000,20.076000,-7.688000
861490,-10.832000,-6.955000,9.413000,-0.940000,1.780000,-4.730000,101.800,9.737000,14.889000,-8.691000
861500,-6.939000,-3.880000,9.415000,-0.670000,1.730000,-5.100000,101.800,5.524000,9.433000,-8.610000
861510,-4.831000,-2.921000,10.374000,-0.530000,1.920000,-4.750000,101.800,3.352000,5.953000,-9.372000
861520,-6.147000,-4.953000,14.216000,-1.220000,2.530000,-2.960000,101.800,5.598000,6.468000,-14.899000
861530,-6.147000,-4.953000,14.216000,-1.220000,2.530000,-2.960000,101.800,7.490000,9.965000,-16.507000
861540,-9.369000,-6.936000,16.141000,-1.890000,2.790000,-2.140000,101.800,8.860000,14.286000,-17.480000
861550,-13.169000,-8.600000,17.201000,-2.870000,3.080000,-1.680000,101.800,10.600000,19.831000,-18.262000
861573,-19.613000,-12.218000,18.196000,-5.200000,4.020000,-2.280000,101.800,11.931000,20.076000,-17.571000
861583,-19.613000,-12.279000,16.873000,-6.270000,4.240000,-3.820000,101.800,10.426000,20.076000,-15.708000
861593,-19.568000,-8.549000,14.854000,-6.730000,4.290000,-5.770000,101.800,5.909000,20.076000,-13.539000
861603,-19.613000,-3.213000,13.113000,-6.580000,4.380000,-7.450000,101.800,0.921000,20.076000,-11.992000
861623,-19.597000,8.250000,10.951000,-6.000000,4.520000,-8.720000,101.800,-11.679000,20.076000,-10.598000
861633,-18.030000,17.301000,9.767000,-6.010000,4.170000,-8.720000,101.800,-20.078000,18.017000,-9.166000
861643,-11.558000,19.613000,6.085000,-6.250000,3.450000,-8.720000,101.800,-20.078000,9.931000,-5.379000
861653,5.607000,19.587000,-1.666000,-6.640000,2.820000,-8.720000,101.800,-20.078000,-9.857000,4.178000
861663,19.613000,19.546000,-14.266000,-5.750000,2.230000,-8.720000,101.800,-20.078000,-20.078000,12.605000
861673,19.613000,19.613000,-19.613000,-1.490000,0.940000,-8.720000,101.800,-20.078000,-20.078000,17.546000
861683,19.309000,19.613000,-19.613000,3.220000,-0.250000,-3.380000,101.800,-20.078000,-20.078000,17.926000
861693,19.613000,19.611000,-19.463000,5.350000,-0.220000,5.640000,101.800,-20.078000,-20.078000,9.625000
861703,19.613000,19.613000,-12.280000,6.900000,-0.500000,8.720000,101.800,-20.078000,-13.279000,-1.678000
861713,11.896000,19.613000,8.906000,8.720000,-2.110000,8.720000,101.800,-20.078000,0.036000,-11.424000
861723,-16.637000,19.613000,19.613000,8.720000,-3.900000,8.720000,101.800,-20.078000,16.781000,-20.078000
861733,-19.613000,19.613000,19.613000,8.720000,-3.980000,8.720000,101.800,-20.078000,20.076000,-20.078000
861743,-19.246000,14.301000,19.369000,8.720000,-2.940000,8.720000,101.800,-12.955000,20.076000,-20.078000
861753,-19.488000,-15.616000,19.613000,7.670000,-3.300000,8.720000,101.800,-1.995000,20.076000,-20.078000
861763,-19.613000,-19.613000,19.613000,4.890000,-4.410000,8.720000,101.800,7.436000,20.076000,-20.078000
861774,-19.610000,-19.243000,19.607000,2.770000,-2.830000,7.280000,101.800,15.867000,20.076000,-20.078000
861784,-19.610000,-19.459000,19.369000,-0.870000,0.050000,4.950000,101.800,20.076000,20.076000,-14.186000
861794,-19.613000,-19.613000,10.377000,-3.680000,1.430000,2.220000,101.800,20.076000,20.076000,-0.973000
861804,-19.613000,-19.611000,-3.667000,-3.370000,1.220000,-1.020000,101.800,20.076000,20.076000,6.610000
861814,-19.613000,-19.484000,-7.229000,-2.130000,1.120000,-3.830000,101.800,20.076000,20.076000,7.181000
861824,-19.613000,-14.673000,-3.668000,-1.420000,1.560000,-5.270000,101.800,13.755000,20.076000,4.127000
861834,-17.384000,-7.677000,1.357000,-1.090000,2.150000,-5.330000,101.800,7.899000,17.144000,-0.845000
861844,-9.963000,-4.740000,7.510000,-0.880000,2.720000,-4.990000,101.800,4.914000,9.855000,-7.046000
861854,-3.695000,-2.303000,12.580000,-0.830000,2.900000,-4.810000,101.800,1.149000,-0.210000,-14.840000
861864,0.216000,-1.105000,15.520000,-0.710000,2.670000,-4.440000,101.800,2.419000,-1.174000,-16.519000
861885,0.577000,-3.611000,16.328000,-1.700000,2.060000,-3.380000,101.800,3.416000,-0.860000,-16.193000
861895,-0.356000,-3.737000,14.225000,-2.350000,1.580000,-3.100000,101.800,3.576000,-0.151000,-14.005000
861905,-1.219000,-3.514000,10.834000,-2.610000,0.930000,-2.700000,101.800,3.372000,0.539000,-10.774000
861915,-2.595000,-3.632000,7.157000,-2.650000,0.340000,-2.160000,101.800,3.453000,1.735000,-7.284000
861925,-5.141000,-4.200000,3.683000,-2.670000,0.180000,-1.480000,101.800,4.002000,4.340000,-4.076000
861935,-8.549000,-5.342000,2.103000,-2.840000,0.870000,-0.830000,101.800,4.965000,7.710000,-2.492000
861945,-12.502000,-7.807000,3.663000,-3.260000,2.190000,-0.540000,101.800,7.240000,11.850000,-3.985000
861955,-17.144000,-10.411000,5.669000,-4.050000,3.280000,-1.020000,101.800,9.629000,17.183000,-5.612000
861965,-19.613000,-10.738000,6.203000,-4.720000,3.720000,-2.460000,101.800,10.049000,20.076000,-5.730000
861975,-19.320000,-7.795000,5.904000,-4.760000,3.660000,-4.260000,101.800,7.512000,20.076000,-5.308000
861986,-17.500000,-4.008000,5.638000,-4.390000,3.530000,-5.610000,101.800,4.026000,18.367000,-5.176000
861996,-15.702000,-0.644000,5.843000,-4.080000,3.480000,-6.530000,101.800,0.666000,16.416000,-5.350000
862006,-14.745000,2.009000,6.470000,-3.830000,3.460000,-7.290000,101.800,-2.166000,15.340000,-6.046000
862016,-13.516000,4.583000,6.426000,-3.700000,3.460000,-8.120000,101.800,-4.627000,14.495000,-6.350000
862026,-11.317000,9.332000,5.439000,-3.810000,3.450000,-8.720000,101.800,-8.892000,12.838000,-5.725000
862036,-8.652000,17.263000,4.295000,-3.980000,3.460000,-8.720000,101.800,-16.546000,10.568000,-4.801000
862046,-2.734000,19.613000,2.929000,-4.290000,3.380000,-8.720000,101.800,-20.078000,6.257000,-4.421000
862056,11.322000,19.604000,-1.117000,-5.210000,2.970000,-8.720000,101.800,-20.078000,-6.754000,-0.919000
862066,19.613000,19.546000,-12.387000,-4.820000,1.190000,-8.720000,101.800,-20.078000,-20.078000,8.725000
862076,19.613000,19.613000,-19.613000,-0.940000,-1.630000,-8.720000,101.800,-20.078000,-20.078000,18.478000
862088,19.422000,19.613000,-19.613000,4.040000,-2.610000,-3.340000,101.800,-20.078000,-20.078000,20.076000
862098,19.613000,19.611000,-19.442000,7.160000,-0.550000,6.120000,101.800,-20.078000,-20.078000,19.581000
862108,19.450000,19.613000,-11.869000,8.720000,1.210000,8.720000,101.800,-20.078000,-12.808000,2.399000
862118,3.505000,19.613000,14.897000,8.720000,0.340000,8.720000,101.800,-20.078000,1.208000,-12.125000
862128,-19.613000,19.613000,19.613000,8.720000,-1.930000,8.720000,101.800,-20.078000,12.485000,-20.078000
862138,-19.613000,19.613000,19.383000,8.720000,-2.790000,8.720000,101.800,-20.078000,20.076000,-20.078000
862148,-19.168000,11.209000,19.455000,8.720000,-2.570000,8.720000,101.800,-20.078000,20.076000,-20.078000
862158,-19.606000,-17.536000,19.613000,7.990000,-3.610000,8.720000,101.800,-0.909000,20.076000,-20.078000
862168,-19.613000,-19.613000,19.613000,5.050000,-4.480000,8.720000,101.800,8.813000,20.076000,-20.078000
862178,-19.606000,-19.224000,19.609000,3.070000,-2.930000,8.190000,101.800,14.855000,20.076000,-20.078000
862196,-19.612000,-19.510000,19.613000,1.060000,-1.850000,6.600000,101.800,20.076000,20.076000,-19.034000
862206,-19.613000,-19.613000,19.040000,-1.330000,-2.220000,3.310000,101.800,20.076000,20.076000,-8.063000
862216,-19.613000,-19.609000,9.851000,-2.820000,-2.180000,0.440000,101.800,20.076000,20.076000,-1.357000
862226,-19.613000,-19.610000,-0.243000,-3.000000,-1.640000,-1.110000,101.800,20.076000,20.076000,3.063000
862236,-19.613000,-19.314000,-4.860000,-2.900000,-1.360000,-2.050000,101.800,17.433000,20.076000,7.041000
862246,-19.613000,-15.672000,-7.032000,-2.530000,-0.960000,-2.700000,101.800,12.544000,20.076000,7.549000
862256,-17.881000,-10.626000,-5.834000,-1.800000,-0.110000,-3.200000,101.800,8.583000,14.654000,4.328000
862266,-11.729000,-7.117000,-2.056000,-1.260000,0.820000,-3.480000,101.800,5.985000,8.897000,0.590000
862276,-6.288000,-4.999000,1.082000,-1.140000,1.390000,-3.500000,101.800,4.022000,4.588000,-1.781000
862286,-3.283000,-3.307000,3.031000,-1.130000,1.570000,-3.350000,101.800,2.803000,2.237000,-3.232000
862304,-2.410000,-3.149000,5.020000,-0.820000,1.450000,-2.170000,101.800,3.357000,2.139000,-5.115000
862314,-3.525000,-3.680000,5.815000,-0.810000,1.440000,-1.420000,101.800,3.901000,3.742000,-6.389000
862324,-6.682000,-4.838000,7.638000,-0.990000,1.450000,-0.590000,101.800,6.159000,8.093000,-8.566000
862334,-11.659000,-8.045000,9.680000,-1.420000,1.360000,0.050000,101.800,9.242000,13.718000,-10.370000
862344,-17.541000,-11.103000,11.089000,-2.150000,1.210000,0.060000,101.800,11.701000,20.076000,-11.127000
862354,-19.613000,-13.057000,10.926000,-3.070000,1.210000,-0.540000,101.800,13.281000,20.076000,-10.284000
862364,-19.613000,-14.721000,9.386000,-4.020000,1.690000,-1.650000,101.800,14.948000,20.076000,-8.867000
862374,-19.560000,-16.010000,8.786000,-4.750000,2.850000,-3.180000,101.800,15.063000,20.076000,-8.838000
862384,-19.613000,-14.753000,10.260000,-5.090000,4.170000,-5.090000,101.800,12.583000,20.076000,-10.507000
862394,-19.613000,-10.968000,12.617000,-5.110000,4.900000,-7.250000,101.800,7.666000,20.076000,-11.857000
862404,-19.612000,-4.524000,13.466000,-4.930000,4.690000,-8.720000,101.800,0.272000,20.076000,-12.100000
862414,-19.613000,4.561000,12.960000,-4.650000,3.910000,-8.720000,101.800,-9.767000,20.076000,-11.370000
862424,-19.613000,15.811000,11.195000,-4.470000,3.090000,-8.720000,101.800,-20.078000,20.076000,-9.708000
862434,-19.613000,19.613000,8.736000,-4.360000,2.680000,-8.720000,101.800,-20.078000,20.076000,-7.129000
862444,-17.619000,19.613000,5.995000,-4.030000,2.570000,-8.720000,101.800,-20.078000,15.973000,-5.343000
862454,-5.997000,19.512000,2.748000,-4.100000,2.630000,-8.720000,101.800,-20.078000,1.215000,-2.593000
862464,13.579000,19.613000,-0.984000,-5.060000,3.020000,-8.720000,101.800,-20.078000,-11.504000,1.019000
862474,19.613000,19.613000,-10.191000,-4.060000,2.340000,-8.720000,101.800,-20.078000,-20.078000,5.727000
862484,19.613000,19.610000,-19.613000,-0.160000,0.480000,-8.720000,101.800,-20.078000,-20.078000,11.330000
862494,19.446000,19.613000,-19.613000,2.560000,-0.070000,0.320000,101.800,-20.078000,-20.078000,9.235000
862504,19.613000,19.613000,-16.558000,4.410000,-0.470000,8.720000,101.800,-20.078000,-18.134000,2.115000
862514,16.664000,19.613000,-4.118000,7.050000,-1.940000,8.720000,101.800,-20.078000,-1.240000,-5.470000
862524,-8.681000,19.613000,9.476000,8.720000,-2.980000,8.720000,101.800,-20.078000,10.473000,-11.549000
862534,-19.613000,19.613000,19.613000,8.720000,-3.070000,8.720000,101.800,-20.078000,20.076000,-20.078000
862544,-19.613000,19.613000,19.613000,8.720000,-2.870000,8.720000,101.800,-20.078000,20.076000,-20.078000
862554,-19.325000,19.613000,19.423000,8.720000,-2.620000,8.720000,101.800,-20.078000,20.076000,-20.078000
862564,-19.613000,5.638000,19.609000,8.720000,-3.160000,8.720000,101.800,-5.703000,20.076000,-20.078000
862574,-19.613000,-19.613000,19.613000,5.660000,-4.700000,8.720000,101.800,2.901000,20.076000,-20.078000
862584,-19.607000,-19.613000,19.609000,3.550000,-5.280000,8.720000,101.800,8.615000,20.076000,-20.078000
862595,-19.613000,-19.184000,19.612000,1.340000,-3.780000,8.030000,101.800,15.272000,20.076000,-20.078000
862605,-19.613000,-19.580000,19.613000,-1.410000,-0.920000,4.600000,101.800,19.377000,20.076000,-16.421000
862615,-19.613000,-19.613000,19.281000,-4.150000,1.220000,0.850000,101.800,20.076000,20.076000,-9.431000
862625,-19.613000,-19.606000,11.602000,-5.720000,2.060000,-3.040000,101.800,20.076000,20.076000,-1.492000
862635,-19.613000,-19.612000,0.483000,-5.810000,2.520000,-6.810000,101.800,17.671000,20.076000,2.943000
862645,-19.613000,-18.306000,-1.796000,-5.100000,3.770000,-8.720000,101.800,11.076000,20.076000,2.492000
862655,-19.613000,-6.823000,3.198000,-4.270000,5.600000,-8.720000,101.800,2.186000,20.076000,-2.411000
862665,-19.613000,8.838000,10.403000,-3.750000,7.010000,-8.720000,101.800,-10.843000,20.076000,-8.926000
862675,-19.613000,19.613000,17.078000,-3.250000,7.370000,-8.720000,101.800,-20.078000,20.076000,-13.750000
862685,-19.613000,19.613000,19.613000,-2.380000,6.630000,-8.720000,101.800,-20.078000,20.076000,-17.193000
862695,-18.517000,19.415000,19.613000,-1.610000,5.230000,-8.720000,101.800,-20.078000,19.081000,-17.941000
862705,-5.136000,19.608000,18.305000,-1.120000,3.690000,-8.720000,101.800,-20.078000,3.279000,-16.054000
862715,17.515000,19.613000,13.755000,-1.240000,2.890000,-8.720000,101.800,-20.078000,-13.429000,-14.311000
862725,19.613000,19.609000,11.630000,-2.390000,3.460000,-8.720000,101.800,-20.078000,-20.078000,-15.544000
862735,19.330000,19.612000,14.395000,-2.520000,3.480000,-8.720000,101.800,-20.078000,-20.078000,-15.527000
862745,19.521000,19.613000,11.817000,-0.680000,0.980000,-3.190000,101.800,-20.078000,-20.078000,-13.193000
862755,19.613000,19.613000,4.997000,0.950000,-2.200000,6.120000,101.800,-20.078000,-20.078000,-10.365000
862765,19.546000,19.613000,2.174000,2.170000,-4.380000,8.720000,101.800,-20.078000,-17.840000,-8.421000
862775,3.723000,19.613000,5.194000,3.430000,-5.220000,8.720000,101.800,-20.078000,0.105000,-7.622000
862785,-19.613000,19.613000,11.788000,4.460000,-5.210000,8.720000,101.800,-20.078000,16.936000,-11.754000
862797,-19.613000,19.613000,18.824000,5.490000,-5.480000,8.720000,101.800,-20.078000,20.076000,-18.877000
862807,-19.145000,18.429000,19.613000,6.730000,-6.090000,8.720000,101.800,-20.078000,20.076000,-20.078000
862817,-19.613000,-3.296000,19.538000,5.770000,-5.610000,8.720000,101.800,-8.129000,20.076000,-20.078000
862827,-19.613000,-19.613000,19.582000,3.100000,-4.010000,8.720000,101.800,-1.379000,20.076000,-16.801000
862837,-19.605000,-19.613000,19.613000,1.570000,-2.700000,8.720000,101.800,2.921000,20.076000,-13.051000
862847,-19.612000,-19.230000,17.723000,0.300000,-1.630000,6.330000,101.800,6.453000,20.076000,-10.519000
862857,-19.613000,-19.613000,7.677000,-1.840000,0.040000,1.910000,101.800,10.830000,20.076000,-4.911000
862867,-19.613000,-19.613000,0.696000,-3.770000,2.660000,-3.130000,101.800,13.747000,20.076000,-0.134000
862877,-19.613000,-19.605000,-0.916000,-4.350000,4.710000,-7.830000,101.800,13.034000,20.076000,2.279000
862887,-19.613000,-15.619000,-0.276000,-3.580000,5.760000,-8.720000,101.800,7.360000,20.076000,1.563000
862898,-19.613000,3.880000,5.697000,-2.240000,6.690000,-8.720000,101.800,-3.438000,20.076000,-3.629000
862908,-19.613000,19.613000,14.800000,-1.380000,7.300000,-8.720000,101.800,-20.078000,20.076000,-10.029000
862918,-19.437000,19.613000,19.613000,-0.560000,6.700000,-8.720000,101.800,-20.078000,20.076000,-16.509000
862928,-1.575000,19.326000,19.239000,0.390000,5.290000,-8.720000,101.800,-20.078000,5.894000,-18.453000
862938,19.613000,19.606000,19.508000,0.900000,4.210000,-8.720000,101.800,-20.078000,-16.076000,-20.078000
862948,19.613000,19.613000,19.255000,0.820000,3.350000,-8.720000,101.800,-20.078000,-20.078000,-19.941000
862958,19.176000,19.608000,19.575000,0.560000,2.270000,-6.910000,101.800,-20.078000,-20.078000,-18.884000
862968,19.613000,19.612000,17.600000,-0.200000,0.120000,1.430000,101.800,-20.078000,-20.078000,-17.394000
862988,18.553000,19.613000,7.025000,0.720000,-4.520000,8.720000,101.800,-20.078000,-20.078000,-10.813000
863007,-2.452000,19.613000,9.596000,1.740000,-5.140000,8.720000,101.800,-20.078000,18.764000,-12.125000
863017,-19.613000,19.613000,14.797000,2.150000,-5.290000,8.720000,101.800,-20.078000,20.076000,-14.833000
863027,-19.613000,18.522000,17.011000,2.350000,-5.590000,8.720000,101.800,-10.468000,20.076000,-14.656000
863037,-19.227000,-2.159000,15.309000,2.530000,-5.470000,8.720000,101.800,0.872000,20.076000,-11.916000
863047,-19.613000,-19.613000,12.948000,2.050000,-5.030000,8.720000,101.800,4.507000,20.076000,-8.245000
863057,-19.613000,-19.613000,6.297000,0.760000,-4.290000,8.720000,101.800,7.960000,20.076000,-3.387000
863067,-19.606000,-19.242000,-0.846000,-0.860000,-2.320000,6.100000,101.800,10.784000,20.076000,0.051000
863077,-19.613000,-19.613000,-3.426000,-2.160000,-0.010000,2.210000,101.800,11.865000,20.076000,1.848000
863087,-19.613000,-19.613000,-4.733000,-2.620000,1.240000,-2.510000,101.800,11.438000,20.076000,4.105000
863097,-19.613000,-19.606000,-5.536000,-2.200000,2.010000,-7.670000,101.800,6.813000,20.076000,2.411000
863105,-19.613000,-14.006000,-1.672000,-1.060000,3.060000,-8.720000,101.800,-1.147000,20.076000,-2.463000
863115,-19.613000,3.262000,6.227000,-0.290000,4.790000,-8.720000,101.800,-12.257000,20.076000,-10.218000
863125,-19.613000,18.091000,17.532000,-0.060000,6.430000,-8.720000,101.800,-20.078000,20.076000,-19.049000
863135,-19.613000,19.613000,19.613000,0.380000,5.790000,-8.720000,101.800,-20.078000,20.076000,-20.078000
863145,-17.053000,19.461000,19.450000,0.900000,2.630000,-8.720000,101.800,-20.078000,5.154000,-17.458000
863155,7.316000,19.553000,16.832000,1.340000,-0.180000,-8.720000,101.800,-20.078000,-14.220000,-13.975000
863165,19.613000,19.613000,6.119000,0.150000,-1.130000,-8.720000,101.800,-20.078000,-20.078000,-7.816000
863175,19.613000,19.612000,-6.188000,-1.330000,-0.760000,-8.720000,101.800,-20.078000,-20.078000,-1.485000
863185,19.296000,19.611000,-12.122000,-1.210000,-0.010000,-4.300000,101.800,-20.078000,-20.078000,0.120000
863195,19.613000,19.613000,-9.530000,0.280000,-0.580000,5.670000,101.800,-20.078000,-20.078000,-1.379000
863205,19.613000,19.613000,-5.202000,2.270000,-2.490000,8.720000,101.800,-20.078000,-17.446000,-0.058000
863215,11.497000,19.613000,-2.099000,4.230000,-3.790000,8.720000,101.800,-20.078000,0.039000,-0.632000
863225,-15.748000,19.613000,3.669000,5.280000,-3.350000,8.720000,101.800,-20.078000,20.076000,-7.948000
863235,-19.613000,19.613000,13.671000,5.580000,-2.450000,8.720000,101.800,-20.078000,20.076000,-16.524000
863245,-19.328000,16.510000,19.613000,5.660000,-2.120000,8.720000,101.800,-12.054000,20.076000,-20.078000
863255,-19.473000,-12.216000,19.613000,4.720000,-2.130000,8.720000,101.800,2.975000,20.076000,-18.507000
863265,-19.613000,-19.613000,19.484000,3.330000,-3.210000,8.720000,101.800,9.431000,20.076000,-15.970000
863275,-19.612000,-19.409000,19.613000,2.360000,-4.290000,6.700000,101.800,13.301000,20.076000,-11.769000
863285,-19.609000,-19.384000,18.991000,1.160000,-3.390000,3.280000,101.800,16.943000,20.076000,-9.240000
863295,-19.613000,-19.613000,17.096000,-0.590000,-1.060000,0.930000,101.800,18.375000,20.076000,-7.789000
863305,-19.613000,-19.613000,15.592000,-2.440000,0.770000,-2.420000,101.800,18.676000,20.076000,-6.247000
863315,-19.613000,-19.607000,13.920000,-3.100000,1.070000,-6.840000,101.800,15.355000,20.076000,-6.267000
863325,-19.613000,-15.807000,10.398000,-2.690000,0.320000,-8.720000,101.800,6.965000,20.076000,-6.326000
863335,-19.613000,0.867000,8.065000,-2.390000,0.500000,-8.720000,101.800,-7.468000,20.076000,-8.169000
863345,-19.613000,16.907000,10.674000,-2.700000,2.000000,-8.720000,101.800,-20.078000,20.076000,-10.796000
863355,-19.549000,19.613000,12.917000,-3.110000,2.940000,-8.720000,101.800,-20.078000,20.076000,-11.382000
863365,-11.029000,19.515000,11.879000,-3.120000,2.480000,-8.720000,101.800,-20.078000,5.504000,-10.272000
863375,10.817000,19.527000,8.698000,-3.000000,1.250000,-8.720000,101.800,-20.078000,-12.478000,-7.737000
863385,19.613000,19.613000,0.792000,-3.400000,-0.250000,-8.720000,101.800,-20.078000,-20.078000,-3.166000
863395,19.613000,19.613000,-14.903000,-2.250000,-2.230000,-8.720000,101.800,-20.078000,-20.078000,5.816000
863406,19.388000,19.610000,-19.613000,0.240000,-2.540000,-2.850000,101.800,-20.078000,-20.078000,9.561000
863416,19.613000,19.613000,-18.254000,2.220000,-1.540000,6.790000,101.800,-20.078000,-20.078000,6.806000
863426,19.331000,19.613000,-9.677000,4.000000,-1.520000,8.720000,101.800,-20.078000,-19.176000,5.193000
863436,6.504000,19.613000,-1.509000,5.630000,-1.740000,8.720000,101.800,-20.078000,-2.745000,1.235000
863446,-16.459000,19.613000,6.177000,6.460000,-1.280000,8.720000,101.800,-20.078000,17.750000,-6.615000
863456,-19.613000,19.613000,17.163000,6.370000,-0.590000,8.720000,101.800,-20.078000,20.076000,-15.701000
863466,-19.406000,10.711000,19.613000,5.880000,-0.310000,8.720000,101.800,-11.183000,20.076000,-20.078000
863476,-19.501000,-19.613000,19.554000,4.320000,-0.610000,8.720000,101.800,7.019000,20.076000,-18.610000
863486,-19.613000,-19.613000,19.538000,2.120000,-1.800000,8.720000,101.800,14.201000,20.076000,-15.429000
863496,-19.613000,-19.081000,19.613000,0.510000,-2.020000,4.060000,101.800,15.215000,20.076000,-12.235000
863505,-19.610000,-19.560000,19.003000,-0.880000,-0.790000,0.060000,101.800,19.509000,20.076000,-8.399000
863515,-19.613000,-19.613000,17.322000,-2.080000,1.090000,-2.890000,101.800,20.076000,20.076000,-7.965000
863525,-19.613000,-19.605000,16.831000,-3.410000,2.240000,-6.570000,101.800,18.720000,20.076000,-8.377000
863535,-19.613000,-18.209000,15.967000,-3.720000,1.900000,-8.720000,101.800,13.122000,20.076000,-9.808000
863545,-19.613000,-4.356000,14.353000,-2.840000,0.840000,-8.720000,101.800,0.404000,20.076000,-11.468000
863555,-19.613000,12.938000,14.420000,-2.060000,0.560000,-8.720000,101.800,-14.277000,20.076000,-12.804000
863565,-19.613000,19.613000,17.230000,-2.190000,1.270000,-8.720000,101.800,-20.078000,20.076000,-15.838000
863575,-19.610000,19.613000,17.761000,-3.070000,1.670000,-8.720000,101.800,-20.078000,20.076000,-15.642000
863585,-13.913000,19.458000,13.655000,-4.110000,1.350000,-8.720000,101.800,-20.078000,12.093000,-12.902000
863595,1.966000,19.613000,9.132000,-5.490000,0.870000,-8.720000,101.800,-20.078000,-0.683000,-8.816000
863607,19.376000,19.613000,1.790000,-6.470000,0.120000,-8.720000,101.800,-20.078000,-9.095000,-4.404000
863617,19.613000,19.609000,-14.086000,-5.000000,-1.090000,-8.720000,101.800,-20.078000,-20.078000,3.921000
863627,19.346000,19.613000,-19.613000,-1.950000,-1.270000,-6.010000,101.800,-20.078000,-20.078000,12.164000
863637,19.574000,19.613000,-19.355000,1.000000,-0.490000,5.330000,101.800,-20.078000,-20.078000,10.512000
863647,19.336000,19.613000,-12.519000,4.130000,-1.060000,8.720000,101.800,-20.078000,-20.078000,6.044000
863667,-17.819000,19.613000,4.247000,7.600000,-1.520000,8.720000,101.800,-20.078000,10.573000,-3.710000
863677,-19.613000,19.613000,15.052000,7.530000,-0.380000,8.720000,101.800,-20.078000,20.076000,-12.639000
863687,-19.342000,17.945000,19.613000,7.580000,-0.280000,8.720000,101.800,-20.078000,20.076000,-20.078000
863697,-19.531000,-9.465000,19.613000,8.050000,-1.200000,8.720000,101.800,-3.884000,20.076000,-20.078000
863708,-19.613000,-19.613000,19.495000,5.710000,-2.320000,8.720000,101.800,15.007000,20.076000,-20.078000
863718,-19.610000,-19.549000,19.613000,2.830000,-3.170000,8.230000,101.800,19.811000,20.076000,-20.078000
863728,-19.611000,-19.325000,19.613000,-0.030000,-2.210000,2.940000,101.800,20.076000,20.076000,-20.078000
863738,-19.613000,-19.613000,19.610000,-3.380000,0.300000,0.030000,101.800,20.076000,20.076000,-17.046000
863748,-19.613000,-19.613000,19.613000,-6.090000,2.590000,-3.340000,101.800,20.076000,20.076000,-13.786000
863758,-19.613000,-19.606000,18.619000,-7.420000,3.430000,-7.450000,101.800,17.978000,20.076000,-10.169000
863768,-19.613000,-16.022000,14.132000,-6.460000,2.980000,-8.720000,101.800,11.272000,20.076000,-7.931000
863778,-19.613000,0.482000,11.945000,-4.260000,2.390000,-8.720000,101.800,-0.200000,20.076000,-9.053000
863788,-19.613000,17.213000,14.541000,-3.290000,2.800000,-8.720000,101.800,-15.429000,20.076000,-12.404000
863798,-19.597000,19.613000,18.907000,-3.690000,3.630000,-8.720000,101.800,-20.078000,20.076000,-16.291000
863818,-11.044000,19.484000,18.222000,-4.220000,3.400000,-8.720000,101.800,-20.078000,-7.671000,-11.754000
863828,15.176000,19.531000,10.601000,-4.480000,2.240000,-8.720000,101.800,-20.078000,-20.078000,-5.867000
863838,19.613000,19.613000,-2.303000,-4.680000,0.980000,-8.720000,101.800,-20.078000,-20.078000,3.276000
863848,19.384000,19.613000,-17.010000,-3.460000,-0.250000,-8.720000,101.800,-20.078000,-20.078000,12.004000
863858,19.463000,19.610000,-19.613000,-0.010000,-1.060000,-3.410000,101.800,-20.078000,-20.078000,10.860000
863868,19.613000,19.613000,-19.293000,2.740000,-0.650000,5.860000,101.800,-20.078000,-20.078000,4.634000
863878,19.613000,19.613000,-12.400000,3.690000,0.090000,8.720000,101.800,-20.078000,-12.107000,1.254000
863888,10.920000,19.613000,-0.333000,4.900000,-0.420000,8.720000,101.800,-20.078000,5.732000,-4.247000
863898,-16.464000,19.613000,9.325000,6.490000,-1.640000,8.720000,101.800,-20.078000,20.076000,-13.279000
863908,-19.613000,19.613000,18.625000,8.220000,-2.400000,8.720000,101.800,-20.078000,20.076000,-20.078000
863916,-19.294000,15.379000,19.613000,8.720000,-1.990000,8.720000,101.800,-3.772000,20.076000,-20.078000
863926,-19.488000,-12.491000,19.505000,6.360000,-1.310000,8.720000,101.800,8.036000,20.076000,-20.078000
863936,-19.613000,-19.613000,19.573000,3.160000,-1.950000,8.720000,101.800,11.289000,20.076000,-20.078000
863946,-19.611000,-19.452000,19.613000,2.030000,-2.800000,7.890000,101.800,12.549000,20.076000,-16.794000
863956,-19.610000,-19.397000,19.612000,0.670000,-1.900000,4.230000,101.800,14.083000,20.076000,-12.786000
863966,-19.613000,-19.613000,19.491000,-1.790000,0.070000,0.680000,101.800,14.296000,20.076000,-8.558000
863976,-19.613000,-19.613000,16.132000,-3.640000,1.670000,-3.950000,101.800,13.887000,20.076000,-5.703000
863986,-19.613000,-19.608000,11.496000,-3.850000,2.470000,-8.720000,101.800,9.671000,20.076000,-6.166000
863996,-19.613000,-13.321000,10.725000,-3.170000,2.990000,-8.720000,101.800,-0.938000,20.076000,-9.784000
864006,-19.613000,7.013000,14.973000,-2.930000,3.850000,-8.720000,101.800,-18.387000,20.076000,-14.850000
864016,-19.613000,19.613000,19.613000,-2.720000,4.030000,-8.720000,101.800,-20.078000,20.076000,-18.436000
864026,-19.613000,19.613000,19.613000,-2.350000,2.420000,-8.720000,101.800,-20.078000,18.573000,-16.247000
864036,-9.635000,19.349000,15.472000,-2.370000,0.410000,-8.720000,101.800,-20.078000,-1.879000,-10.794000
864046,17.776000,19.613000,5.113000,-3.170000,-0.570000,-8.720000,101.800,-20.078000,-16.134000,-6.370000
864056,19.613000,19.613000,-10.197000,-4.520000,-0.080000,-8.720000,101.800,-20.078000,-20.078000,1.651000
864066,19.218000,19.607000,-17.338000,-3.800000,1.500000,-8.720000,101.800,-20.078000,-20.078000,5.769000
864076,19.515000,19.613000,-16.705000,-1.160000,1.170000,0.860000,101.800,-20.078000,-20.078000,3.644000
864086,19.613000,19.613000,-13.158000,1.610000,-1.230000,8.720000,101.800,-20.078000,-20.078000,0.870000
864096,17.897000,19.613000,-6.812000,3.870000,-3.160000,8.720000,101.800,-20.078000,-4.794000,0.463000
864106,-3.352000,19.613000,-1.464000,5.400000,-3.580000,8.720000,101.800,-20.078000,8.188000,-3.436000
864116,-19.613000,19.613000,8.668000,6.540000,-3.000000,8.720000,101.800,-20.078000,20.076000,-13.375000
864126,-19.613000,19.613000,19.613000,8.070000,-2.890000,8.720000,101.800,-20.078000,20.076000,-20.078000
864136,-19.259000,18.334000,19.613000,8.720000,-2.650000,8.720000,101.800,-17.112000,20.076000,-20.078000
864146,-19.613000,-4.242000,19.429000,7.470000,-1.400000,8.720000,101.800,1.580000,20.076000,-20.078000
864156,-19.613000,-19.613000,19.598000,3.640000,-1.200000,8.720000,101.800,8.093000,20.076000,-20.078000
864166,-19.606000,-19.613000,19.613000,0.940000,-2.140000,8.400000,101.800,10.411000,20.076000,-20.078000
864176,-19.613000,-19.243000,19.610000,-0.900000,-2.040000,4.270000,101.800,13.742000,20.076000,-14.897000
864186,-19.613000,-19.613000,19.245000,-3.140000,-0.050000,1.610000,101.800,15.941000,20.076000,-9.750000
864196,-19.613000,-19.613000,14.423000,-5.420000,2.370000,-1.380000,101.800,16.446000,20.076000,-4.561000
864206,-19.613000,-19.606000,8.379000,-6.220000,3.640000,-5.340000,101.800,14.826000,20.076000,-1.164000
864216,-19.613000,-18.817000,5.013000,-4.350000,3.330000,-8.720000,101.800,9.257000,20.076000,-1.453000
864226,-19.613000,-6.893000,6.645000,-1.990000,3.240000,-8.720000,101.800,-1.093000,20.076000,-6.492000
864236,-19.613000,11.157000,12.770000,-1.520000,4.680000,-8.720000,101.800,-16.012000,20.076000,-12.906000
864246,-19.613000,19.613000,19.613000,-1.690000,6.100000,-8.720000,101.800,-20.078000,20.076000,-18.032000
864256,-19.604000,19.613000,19.613000,-1.320000,5.350000,-8.720000,101.800,-20.078000,20.076000,-18.860000
864266,-10.136000,19.427000,19.093000,-0.670000,3.290000,-8.720000,101.800,-20.078000,3.389000,-16.973000
864276,16.450000,19.613000,16.348000,-0.990000,1.520000,-8.720000,101.800,-20.078000,-15.326000,-16.183000
864286,19.613000,19.613000,4.549000,-2.500000,-0.100000,-8.720000,101.800,-20.078000,-20.078000,-8.958000
864296,19.293000,19.609000,-8.318000,-3.120000,-0.750000,-8.720000,101.800,-20.078000,-20.078000,-1.365000
864306,19.487000,19.613000,-13.976000,-1.940000,-1.000000,-0.450000,101.800,-20.078000,-20.078000,1.877000
864317,19.613000,19.613000,-11.687000,0.530000,-2.030000,8.450000,101.800,-20.078000,-20.078000,1.139000
864327,18.933000,19.613000,-6.379000,2.910000,-2.880000,8.720000,101.800,-20.078000,-13.605000,1.465000
864337,1.055000,19.613000,0.712000,4.920000,-2.660000,8.720000,101.800,-20.078000,2.291000,-2.455000
864347,-19.613000,19.613000,11.022000,6.280000,-1.860000,8.720000,101.800,-20.078000,20.076000,-11.213000
864357,-19.613000,19.613000,19.613000,7.480000,-2.100000,8.720000,101.800,-20.078000,20.076000,-19.669000
864377,-19.613000,3.803000,19.455000,7.660000,-3.580000,8.720000,101.800,-5.201000,20.076000,-20.078000
864387,-19.613000,-15.087000,19.608000,4.950000,-2.880000,8.720000,101.800,2.301000,20.076000,-20.078000
864397,-19.606000,-19.613000,19.613000,2.110000,-1.840000,8.720000,101.800,6.237000,20.076000,-19.429000
864407,-19.613000,-19.598000,19.610000,0.060000,-1.000000,7.600000,101.800,9.612000,20.076000,-14.451000
864417,-19.613000,-19.487000,19.321000,-0.920000,0.080000,3.650000,101.810,11.835000,20.076000,-10.453000
864427,-19.613000,-19.613000,16.111000,-2.010000,1.610000,-0.380000,101.810,14.370000,20.076000,-6.965000
864437,-19.613000,-19.613000,14.495000,-2.440000,2.860000,-5.130000,101.810,14.539000,20.076000,-6.277000
864447,-19.613000,-18.930000,16.378000,-1.630000,2.930000,-8.720000,101.810,10.973000,20.076000,-9.451000
864457,-19.613000,-5.369000,18.270000,-0.820000,2.480000,-8.720000,101.810,0.151000,20.076000,-13.828000
864467,-19.613000,16.585000,19.613000,-0.650000,2.630000,-8.720000,101.810,-18.056000,20.076000,-16.823000
864477,-19.613000,19.613000,19.613000,-0.970000,3.270000,-8.720000,101.810,-20.078000,20.076000,-20.078000
864487,-17.314000,19.414000,19.589000,-1.530000,3.100000,-8.720000,101.810,-20.078000,16.838000,-20.078000
864497,2.060000,19.506000,19.611000,-2.420000,1.980000,-8.720000,101.810,-20.078000,-1.610000,-20.078000
864507,19.613000,19.613000,16.122000,-4.720000,0.780000,-8.720000,101.810,-20.078000,-18.036000,-18.058000
864518,19.613000,19.612000,-0.609000,-6.500000,-0.970000,-8.720000,101.810,-20.078000,-20.078000,-6.833000
864528,19.256000,19.610000,-18.224000,-4.820000,-2.520000,-7.580000,101.810,-20.078000,-20.078000,5.156000
864538,19.613000,19.613000,-19.613000,-1.860000,-2.860000,1.960000,101.810,-20.078000,-20.078000,12.039000
864548,19.613000,19.613000,-19.410000,0.830000,-2.380000,8.720000,101.810,-20.078000,-20.078000,12.757000
864558,18.036000,19.613000,-16.111000,3.590000,-1.920000,8.720000,101.810,-20.078000,-16.213000,11.713000
864568,-3.026000,19.613000,-3.833000,5.990000,-1.720000,8.720000,101.810,-20.078000,0.637000,3.718000
864578,-19.613000,19.613000,9.560000,7.620000,-1.850000,8.720000,101.810,-20.078000,20.076000,-6.902000
864588,-19.613000,19.613000,18.847000,8.720000,-2.240000,8.720000,101.810,-20.078000,20.076000,-14.772000
864598,-19.245000,17.136000,19.613000,8.720000,-1.960000,8.720000,101.810,-20.078000,20.076000,-20.078000
864608,-19.613000,-2.270000,19.517000,7.210000,-0.900000,8.720000,101.810,-4.879000,20.076000,-20.078000
864619,-19.613000,-19.613000,19.580000,4.490000,-0.430000,8.720000,101.810,3.693000,20.076000,-20.078000
864629,-19.606000,-19.613000,19.613000,2.250000,-0.840000,8.720000,101.810,7.208000,20.076000,-20.078000
864639,-19.613000,-19.338000,19.612000,1.070000,-0.740000,5.550000,101.810,10.416000,20.076000,-16.725000
864649,-19.613000,-19.591000,19.612000,-0.200000,0.190000,0.900000,101.810,12.497000,20.076000,-14.634000
864659,-19.613000,-19.613000,19.613000,-1.410000,1.240000,-4.370000,101.810,14.605000,20.076000,-13.017000
864669,-19.613000,-19.546000,19.613000,-1.730000,1.750000,-8.720000,101.810,13.774000,20.076000,-13.507000
864679,-19.613000,-9.945000,19.613000,-1.370000,1.480000,-8.720000,101.810,7.090000,20.076000,-17.051000
864689,-19.613000,13.088000,19.613000,-1.210000,1.310000,-8.720000,101.810,-9.286000,20.076000,-19.840000
864699,-19.613000,19.613000,19.613000,-1.860000,1.700000,-8.720000,101.810,-20.078000,20.076000,-20.078000
864709,-17.303000,19.612000,19.613000,-2.720000,1.910000,-8.720000,101.810,-20.078000,20.076000,-20.078000
864721,0.149000,19.432000,18.677000,-3.390000,1.200000,-8.720000,101.810,-20.078000,2.585000,-19.507000
864731,19.597000,19.613000,11.225000,-4.630000,0.130000,-8.720000,101.810,-20.078000,-15.360000,-13.794000
864741,19.613000,19.613000,-2.357000,-6.540000,-0.930000,-8.720000,101.810,-20.078000,-20.078000,-5.458000
864751,19.312000,19.609000,-17.731000,-6.140000,-1.870000,-8.720000,101.810,-20.078000,-20.078000,4.980000
864761,19.577000,19.613000,-19.613000,-3.450000,-2.000000,-2.760000,101.810,-20.078000,-20.078000,14.318000
864771,19.613000,19.613000,-19.460000,-0.060000,-1.630000,4.430000,101.810,-20.078000,-20.078000,17.784000
864781,19.608000,19.613000,-19.020000,3.020000,-1.430000,8.720000,101.810,-20.078000,-20.078000,16.049000
864791,14.108000,19.613000,-10.410000,5.260000,-1.470000,8.720000,101.810,-20.078000,-19.392000,10.929000
864801,-10.807000,19.613000,2.732000,6.590000,-1.780000,8.720000,101.810,-20.078000,0.825000,2.308000
864811,-19.613000,19.613000,12.696000,7.320000,-1.980000,8.720000,101.810,-20.078000,20.076000,-7.019000
864822,-19.613000,19.415000,19.369000,7.380000,-1.640000,8.720000,101.810,-20.078000,20.076000,-13.522000
864832,-19.378000,8.533000,19.613000,6.450000,-0.530000,8.720000,101.810,-17.321000,20.076000,-20.078000
864842,-19.613000,-13.939000,19.524000,4.440000,0.300000,8.720000,101.810,0.098000,20.076000,-20.078000
864852,-19.613000,-19.613000,19.595000,2.160000,0.110000,8.720000,101.810,8.676000,20.076000,-20.078000
864862,-19.608000,-19.599000,19.613000,1.000000,-0.570000,5.970000,101.810,11.323000,20.076000,-19.742000
864872,-19.613000,-19.455000,19.612000,0.520000,-0.750000,2.740000,101.810,13.818000,20.076000,-16.909000
864882,-19.613000,-19.613000,19.612000,-0.630000,0.110000,-0.690000,101.810,15.634000,20.076000,-15.007000
864892,-19.613000,-19.613000,19.613000,-2.200000,1.290000,-5.060000,101.810,16.066000,20.076000,-13.791000
864902,-19.613000,-18.524000,19.613000,-2.960000,1.780000,-8.720000,101.810,14.397000,20.076000,-13.490000
864912,-19.613000,-4.814000,19.613000,-2.870000,1.680000,-8.720000,101.810,7.036000,20.076000,-15.549000
864924,-19.613000,14.032000,19.613000,-2.930000,1.970000,-8.720000,101.810,-6.909000,20.076000,-17.897000
864934,-19.613000,19.613000,19.613000,-3.630000,2.660000,-8.720000,101.810,-20.078000,20.076000,-19.230000
864944,-19.613000,19.613000,19.613000,-4.410000,2.860000,-8.720000,101.810,-20.078000,20.076000,-20.078000
864954,-17.628000,19.469000,19.527000,-4.770000,1.800000,-8.720000,101.810,-20.078000,20.076000,-20.078000
864964,-1.463000,19.613000,15.074000,-4.520000,-0.140000,-8.720000,101.810,-20.078000,8.816000,-16.188000
864974,19.613000,19.613000,1.245000,-4.850000,-2.180000,-8.720000,101.810,-20.078000,-8.720000,-9.178000
864994,19.252000,19.613000,-19.613000,-4.510000,-2.460000,-6.750000,101.810,-20.078000,-20.078000,12.095000
865004,19.584000,19.613000,-19.449000,-1.420000,-0.800000,2.500000,101.810,-20.078000,-20.078000,20.076000
865014,19.613000,19.613000,-18.467000,2.010000,-0.450000,8.720000,101.810,-20.078000,-20.078000,17.544000
865025,18.336000,19.613000,-9.434000,4.960000,-1.490000,8.720000,101.810,-20.078000,-20.078000,11.460000
865035,5.542000,19.613000,-0.237000,6.830000,-2.200000,8.720000,101.810,-20.078000,-13.433000,5.389000
865045,-12.330000,19.613000,9.103000,7.800000,-2.040000,8.720000,101.810,-20.078000,-0.737000,-1.365000
865055,-19.613000,19.613000,19.613000,8.320000,-1.400000,8.720000,101.810,-20.078000,16.632000,-12.397000
865065,-19.613000,19.557000,19.613000,7.810000,-0.660000,8.720000,101.810,-20.078000,20.076000,-20.078000
865075,-19.431000,2.136000,19.437000,4.730000,0.830000,8.720000,101.810,-20.078000,20.076000,-20.078000
865085,-19.613000,-19.613000,19.597000,-0.860000,0.930000,8.720000,101.810,3.169000,20.076000,-20.078000
865095,-19.613000,-19.613000,19.613000,-3.740000,-0.370000,8.720000,101.810,12.612000,20.076000,-19.755000
865105,-19.609000,-19.140000,18.610000,-2.820000,-1.270000,5.580000,101.810,8.264000,20.076000,-13.402000
865115,-19.613000,-19.613000,14.048000,-1.490000,-0.430000,3.500000,101.810,9.759000,20.076000,-8.607000
865126,-19.613000,-19.613000,11.708000,-2.290000,1.720000,0.080000,101.810,12.875000,20.076000,-6.828000
865136,-19.613000,-19.604000,12.354000,-3.320000,3.050000,-5.100000,101.810,13.333000,20.076000,-5.382000
865146,-19.613000,-16.598000,14.971000,-2.450000,2.770000,-8.720000,101.810,11.399000,20.076000,-6.394000
865156,-19.613000,-0.118000,17.260000,-1.730000,1.930000,-8.720000,101.810,4.674000,20.076000,-11.161000
865166,-19.613000,16.272000,18.148000,-2.010000,1.550000,-8.720000,101.810,-7.970000,20.076000,-14.230000
865176,-19.613000,19.613000,18.629000,-2.490000,1.510000,-8.720000,101.810,-20.078000,20.076000,-14.921000
865186,-19.613000,19.570000,17.033000,-3.010000,1.100000,-8.720000,101.810,-20.078000,20.076000,-15.110000
865196,-15.444000,19.515000,10.992000,-3.750000,0.610000,-8.720000,101.810,-20.078000,20.076000,-13.252000
865206,3.479000,19.613000,2.346000,-4.970000,0.630000,-8.720000,101.810,-20.078000,8.571000,-8.061000
865216,19.613000,19.613000,-6.141000,-6.550000,1.630000,-8.720000,101.810,-20.078000,-8.252000,-1.897000
865227,19.613000,19.610000,-16.547000,-5.750000,1.820000,-8.720000,101.810,-20.078000,-20.078000,2.220000
865237,19.275000,19.613000,-19.613000,-1.430000,0.450000,-6.160000,101.810,-20.078000,-20.078000,10.465000
865247,19.613000,19.613000,-19.251000,2.570000,-0.560000,3.750000,101.810,-20.078000,-20.078000,8.549000
865257,19.613000,19.613000,-11.579000,4.650000,-1.060000,8.720000,101.810,-20.078000,-20.078000,3.823000
865267,16.167000,19.613000,-0.528000,5.840000,-1.500000,8.720000,101.810,-20.078000,-12.286000,-0.938000
865277,0.184000,19.613000,5.089000,6.280000,-1.580000,8.720000,101.810,-20.078000,2.294000,-5.583000
865287,-16.135000,19.613000,11.165000,6.350000,-1.200000,8.720000,101.810,-20.078000,19.404000,-11.904000
865297,-19.613000,19.613000,19.090000,6.230000,-0.590000,8.720000,101.810,-20.078000,20.076000,-17.183000
865307,-19.539000,17.408000,19.613000,5.750000,-0.180000,8.720000,101.810,-16.929000,20.076000,-20.078000
865317,-19.508000,-5.706000,19.510000,4.150000,0.340000,8.720000,101.810,3.735000,20.076000,-20.078000
865330,-19.613000,-19.613000,19.586000,1.090000,-0.260000,8.720000,101.810,13.880000,20.076000,-19.632000
865340,-19.613000,-19.613000,19.613000,-1.190000,-1.510000,8.490000,101.810,11.916000,20.076000,-15.137000
865350,-19.610000,-19.276000,18.085000,-2.000000,-1.660000,4.270000,101.810,12.402000,20.076000,-8.617000
865360,-19.613000,-19.613000,11.955000,-2.270000,-0.500000,1.430000,101.810,14.816000,20.076000,-5.044000
865370,-19.613000,-19.613000,9.863000,-2.600000,1.320000,-2.050000,101.810,14.943000,20.076000,-4.245000
865380,-19.613000,-19.606000,10.492000,-3.010000,2.390000,-6.530000,101.810,13.429000,20.076000,-4.556000
865390,-19.613000,-16.375000,11.879000,-2.340000,2.250000,-8.720000,101.810,7.254000,20.076000,-7.757000
865400,-19.613000,0.105000,13.114000,-1.650000,1.950000,-8.720000,101.810,-4.879000,20.076000,-11.142000
865410,-19.613000,17.132000,15.771000,-1.920000,2.410000,-8.720000,101.810,-20.078000,20.076000,-13.951000
865420,-19.613000,19.613000,19.017000,-2.500000,2.810000,-8.720000,101.810,-20.078000,20.076000,-16.581000
865430,-18.173000,19.486000,19.613000,-3.050000,2.190000,-8.720000,101.800,-20.078000,17.188000,-17.112000
865440,-0.588000,19.529000,14.028000,-3.370000,0.600000,-8.720000,101.800,-20.078000,-3.284000,-11.529000
865450,19.613000,19.613000,1.610000,-4.040000,-0.870000,-8.720000,101.800,-20.078000,-20.078000,-5.159000
865460,19.613000,19.613000,-12.803000,-5.650000,-1.190000,-8.720000,101.800,-20.078000,-20.078000,2.774000
865470,19.217000,19.610000,-19.613000,-5.010000,-0.900000,-7.660000,101.800,-20.078000,-20.078000,10.392000
865480,19.611000,19.613000,-19.613000,-1.630000,-1.080000,0.170000,101.800,-20.078000,-20.078000,13.713000
865490,19.613000,19.613000,-19.383000,2.020000,-1.510000,6.980000,101.800,-20.078000,-20.078000,12.056000
865500,19.606000,19.613000,-15.777000,4.510000,-1.770000,8.720000,101.800,-20.078000,-20.078000,11.103000
865510,16.082000,19.613000,-6.915000,6.390000,-1.610000,8.720000,101.800,-20.078000,-15.664000,6.830000
865520,-0.922000,19.613000,3.458000,7.980000,-1.350000,8.720000,101.800,-20.078000,-0.977000,-1.752000
865540,-18.732000,19.613000,15.718000,8.720000,-1.180000,8.720000,101.800,-20.078000,20.076000,-20.078000
865550,-19.613000,19.613000,19.613000,8.720000,-0.720000,8.720000,101.800,-13.232000,20.076000,-20.078000
865560,-19.375000,9.688000,19.613000,7.150000,0.570000,8.720000,101.800,5.840000,20.076000,-20.078000
865570,-19.561000,-19.080000,19.508000,2.480000,1.000000,8.720000,101.800,11.228000,20.076000,-20.078000
865580,-19.613000,-19.613000,19.613000,-0.690000,-0.760000,8.720000,101.800,9.963000,20.076000,-17.784000
865590,-19.610000,-19.155000,19.613000,-1.460000,-1.850000,5.550000,101.800,12.377000,20.076000,-12.083000
865600,-19.612000,-19.544000,19.571000,-1.990000,-0.840000,2.560000,101.800,13.924000,20.076000,-8.931000
865610,-19.613000,-19.613000,17.951000,-2.850000,1.210000,-0.490000,101.800,14.142000,20.076000,-7.446000
865620,-19.613000,-19.607000,15.625000,-3.700000,2.710000,-4.950000,101.800,11.034000,20.076000,-7.610000
865630,-19.613000,-18.854000,14.411000,-3.380000,2.700000,-8.720000,101.800,2.379000,20.076000,-9.632000
865643,-19.613000,14.553000,14.794000,-1.910000,2.310000,-8.720000,101.800,-12.884000,20.076000,-12.085000
865653,-19.613000,19.613000,18.398000,-2.450000,3.250000,-8.720000,101.800,-20.078000,20.076000,-14.946000
865663,-19.613000,19.612000,19.613000,-3.310000,3.410000,-8.720000,101.800,-20.078000,20.076000,-17.463000
865673,-18.841000,19.473000,19.336000,-4.170000,2.480000,-8.720000,101.800,-20.078000,20.076000,-18.335000
865683,-4.819000,19.613000,15.594000,-4.510000,1.140000,-8.720000,101.800,-20.078000,6.134000,-13.406000
865693,19.613000,19.613000,2.510000,-4.440000,-0.630000,-8.720000,101.800,-20.078000,-6.696000,-8.992000
865703,19.613000,19.609000,-17.622000,-4.210000,-1.760000,-8.720000,101.800,-20.078000,-20.078000,2.776000
865713,19.187000,19.613000,-19.613000,-2.310000,-0.460000,-5.110000,101.800,-20.078000,-20.078000,11.426000
865723,19.576000,19.613000,-16.449000,0.470000,1.090000,5.600000,101.800,-20.078000,-20.078000,7.737000
865744,13.213000,19.613000,3.034000,5.000000,-1.560000,8.720000,101.800,-20.078000,-12.676000,-0.840000
865754,-4.560000,19.613000,7.889000,6.710000,-2.620000,8.720000,101.800,-20.078000,-1.813000,-4.571000
865764,-17.241000,19.613000,12.517000,7.850000,-2.840000,8.720000,101.800,-20.078000,6.965000,-8.764000
865774,-19.613000,19.613000,18.759000,8.720000,-2.370000,8.720000,101.800,-20.078000,16.475000,-15.156000
865784,-19.571000,19.613000,19.613000,8.720000,-0.750000,8.720000,101.800,-20.078000,20.076000,-20.078000
865794,-19.543000,10.916000,19.542000,6.480000,1.990000,8.720000,101.800,-20.078000,20.076000,-20.078000
865804,-19.613000,-19.613000,19.581000,-0.670000,1.820000,8.720000,101.800,-2.754000,20.076000,-20.078000
865814,-19.613000,-19.613000,19.613000,-4.100000,-1.720000,8.720000,101.800,7.603000,20.076000,-17.718000
865824,-19.612000,-19.044000,16.106000,-1.550000,-4.690000,3.670000,101.800,2.460000,20.076000,-12.509000
865834,-19.613000,-19.573000,6.401000,1.510000,-4.760000,1.980000,101.800,7.213000,20.076000,-4.627000
865845,-19.613000,-19.613000,5.700000,0.600000,-1.330000,0.160000,101.800,11.497000,20.076000,-3.303000
865855,-19.613000,-19.604000,9.141000,-1.970000,1.870000,-3.300000,101.800,13.360000,20.076000,-3.426000
865865,-19.613000,-19.487000,11.454000,-1.470000,2.240000,-7.610000,101.800,13.421000,20.076000,-4.066000
865875,-19.613000,-12.522000,12.259000,0.090000,0.990000,-8.720000,101.800,10.193000,20.076000,-7.134000
865885,-19.613000,2.923000,12.085000,0.420000,0.300000,-8.720000,101.800,1.132000,20.076000,-9.919000
865895,-19.613000,14.895000,12.870000,-0.160000,1.010000,-8.720000,101.800,-11.340000,20.076000,-11.468000
865905,-19.613000,19.613000,15.487000,-1.260000,2.610000,-8.720000,101.800,-20.078000,20.076000,-13.821000
865915,-19.613000,19.613000,18.900000,-2.460000,4.140000,-8.720000,101.800,-20.078000,20.076000,-16.906000
865925,-19.517000,19.513000,19.613000,-3.480000,4.670000,-8.720000,101.800,-20.078000,20.076000,-19.541000
865935,-14.507000,19.613000,19.597000,-4.500000,3.580000,-8.720000,101.800,-20.078000,16.335000,-20.078000
865947,-0.087000,19.613000,19.225000,-5.240000,1.380000,-8.720000,101.800,-20.078000,6.379000,-19.745000
865957,19.613000,19.611000,10.379000,-5.470000,-1.260000,-8.720000,101.800,-20.078000,-8.561000,-14.115000
865967,19.613000,19.613000,-10.087000,-4.830000,-3.030000,-8.720000,101.800,-20.078000,-20.078000,-6.654000
865977,19.285000,19.613000,-19.613000,-3.070000,-2.010000,-5.030000,101.800,-20.078000,-20.078000,6.296000
865987,19.576000,19.613000,-16.175000,-0.450000,0.250000,5.530000,101.800,-20.078000,-20.078000,9.826000
865997,19.613000,19.613000,-4.175000,1.890000,-0.070000,8.720000,101.800,-20.078000,-20.078000,3.137000
866007,14.958000,19.613000,1.520000,4.250000,-2.260000,8.720000,101.800,-20.078000,-20.078000,0.948000
866017,-1.164000,19.613000,4.083000,5.960000,-3.500000,8.720000,101.800,-20.078000,-8.691000,-1.171000
866027,-14.126000,19.613000,6.870000,6.940000,-3.450000,8.720000,101.800,-20.078000,3.634000,-4.232000
866037,-19.613000,19.613000,13.045000,8.090000,-2.700000,8.720000,101.800,-20.078000,11.576000,-7.213000
866048,-19.613000,19.613000,19.613000,8.710000,-1.140000,8.720000,101.800,-20.078000,20.076000,-17.522000
866058,-19.520000,14.877000,19.613000,7.060000,0.690000,8.720000,101.800,-20.078000,20.076000,-20.078000
866068,-19.612000,-16.834000,19.479000,1.720000,1.110000,8.720000,101.800,-10.093000,20.076000,-20.078000
866078,-19.613000,-19.613000,19.613000,-1.890000,-1.010000,8.720000,101.800,7.517000,20.076000,-17.416000
866088,-19.612000,-19.144000,19.217000,-0.780000,-2.270000,4.840000,101.800,6.588000,20.076000,-12.833000
866098,-19.613000,-19.481000,16.296000,0.900000,-2.100000,2.070000,101.800,5.495000,20.076000,-10.054000
866108,-19.613000,-19.613000,16.164000,0.410000,-0.630000,-0.610000,101.800,11.634000,20.076000,-8.404000
866118,-19.613000,-19.609000,17.138000,-1.370000,0.930000,-4.740000,101.800,13.429000,20.076000,-8.617000
866128,-19.613000,-19.130000,17.814000,-1.680000,1.350000,-8.720000,101.800,12.551000,20.076000,-8.843000
866138,-19.613000,-8.265000,17.791000,-1.070000,0.720000,-8.720000,101.800,8.757000,20.076000,-11.304000
866149,-19.613000,10.781000,17.620000,-0.900000,0.450000,-8.720000,101.800,-2.061000,20.076000,-13.759000
866159,-19.613000,19.613000,19.134000,-1.580000,1.190000,-8.720000,101.800,-17.031000,20.076000,-15.610000
866169,-19.613000,19.613000,19.613000,-2.870000,2.200000,-8.720000,101.800,-20.078000,20.076000,-17.894000
866179,-19.582000,19.421000,19.607000,-4.530000,2.830000,-8.720000,101.800,-20.078000,20.076000,-20.078000
866189,-16.531000,19.613000,19.599000,-6.380000,2.230000,-8.720000,101.800,-20.078000,17.882000,-20.078000
866199,-2.569000,19.613000,17.464000,-7.690000,0.330000,-8.720000,101.800,-20.078000,9.627000,-18.340000
866209,18.890000,19.609000,3.613000,-7.880000,-2.040000,-8.720000,101.800,-20.078000,-2.384000,-11.029000
866219,19.613000,19.613000,-17.025000,-6.300000,-3.220000,-8.720000,101.800,-20.078000,-16.201000,-1.068000
866229,19.287000,19.613000,-19.613000,-2.870000,-2.080000,-6.250000,101.800,-20.078000,-20.078000,10.784000
866239,19.554000,19.613000,-18.808000,0.890000,0.000000,4.050000,101.800,-20.078000,-20.078000,15.605000
866250,19.613000,19.613000,-10.200000,3.640000,0.120000,8.720000,101.800,-20.078000,-20.078000,8.424000
866260,16.680000,19.613000,-1.106000,5.720000,-1.340000,8.720000,101.800,-20.078000,-20.078000,3.473000
866270,0.204000,19.613000,3.541000,6.850000,-2.030000,8.720000,101.800,-20.078000,-11.375000,0.330000
866280,-15.380000,19.613000,8.704000,7.380000,-1.840000,8.720000,101.800,-20.078000,15.130000,-9.103000
866290,-19.613000,19.613000,17.418000,7.940000,-1.220000,8.720000,101.800,-20.078000,20.076000,-18.242000
866300,-19.613000,19.613000,19.613000,7.960000,-0.380000,8.720000,101.800,-20.078000,20.076000,-20.078000
866310,-19.501000,4.355000,19.572000,6.230000,0.600000,8.720000,101.800,-4.394000,20.076000,-20.078000
866320,-19.613000,-19.613000,19.547000,1.780000,-0.070000,8.720000,101.800,13.997000,20.076000,-19.407000
866330,-19.613000,-19.613000,19.613000,-0.620000,-1.420000,8.720000,101.800,12.240000,20.076000,-16.107000
866340,-19.611000,-19.099000,19.613000,-0.760000,-1.370000,4.050000,101.800,11.777000,20.076000,-11.644000
866352,-19.613000,-19.613000,19.094000,-1.020000,-0.260000,1.510000,101.800,16.470000,20.076000,-8.948000
866362,-19.613000,-19.613000,18.932000,-1.750000,1.210000,-1.920000,101.800,16.284000,20.076000,-9.220000
866372,-19.613000,-19.603000,18.328000,-2.590000,1.790000,-6.520000,101.800,15.098000,20.076000,-8.794000
866382,-19.613000,-17.074000,15.671000,-2.330000,1.160000,-8.720000,101.800,8.941000,20.076000,-9.906000
866392,-19.613000,-0.949000,13.270000,-1.830000,0.740000,-8.720000,101.800,-4.362000,20.076000,-12.017000
866402,-19.613000,15.592000,13.846000,-2.310000,1.740000,-8.720000,101.800,-18.588000,20.076000,-13.926000
866422,-18.453000,19.503000,19.613000,-5.620000,3.460000,-8.720000,101.800,-20.078000,14.877000,-18.877000
866432,-18.453000,19.503000,19.613000,-5.620000,3.460000,-8.720000,101.800,-20.078000,6.281000,-15.698000
866442,-10.813000,19.613000,19.340000,-6.530000,1.900000,-8.720000,101.800,-20.078000,-4.404000,-9.754000
866463,19.613000,19.610000,-5.897000,-6.210000,-1.700000,-8.720000,101.800,-20.078000,-20.078000,-0.348000
866473,19.613000,19.613000,-19.613000,-3.690000,-1.520000,-8.720000,101.800,-20.078000,-20.078000,10.125000
866483,19.340000,19.613000,-18.617000,-0.120000,-0.320000,2.040000,101.800,-20.078000,-20.078000,6.299000
866493,19.613000,19.613000,-7.021000,2.830000,-0.530000,8.720000,101.800,-20.078000,-20.078000,2.289000
866503,15.900000,19.613000,0.340000,5.450000,-2.240000,8.720000,101.800,-20.078000,-12.595000,0.240000
866513,1.347000,19.613000,2.904000,6.960000,-2.900000,8.720000,101.800,-20.078000,-2.566000,-2.208000
866523,-11.988000,19.613000,7.425000,7.420000,-2.220000,8.720000,101.800,-20.078000,7.213000,-6.955000
866533,-19.613000,19.613000,13.284000,7.620000,-1.640000,8.720000,101.800,-20.078000,15.576000,-11.781000
866543,-19.613000,19.613000,18.928000,8.170000,-1.540000,8.720000,101.800,-20.078000,20.076000,-19.514000
866553,-19.456000,19.570000,19.613000,8.720000,-0.630000,8.720000,101.800,-20.078000,20.076000,-20.078000
866565,-19.613000,-2.078000,19.548000,6.160000,0.120000,8.720000,101.800,-7.299000,20.076000,-20.078000
866575,-19.613000,-19.613000,19.586000,1.010000,-2.000000,8.720000,101.800,20.076000,20.076000,-12.598000
866585,-19.610000,-19.613000,19.300000,0.410000,-3.920000,5.230000,101.800,20.076000,20.076000,-10.453000
866595,-19.613000,-11.419000,13.330000,3.080000,-5.790000,-0.450000,101.800,10.487000,20.076000,-9.127000
866605,-19.613000,-5.197000,8.833000,5.430000,-6.040000,-0.120000,101.800,5.823000,20.076000,-9.183000
866615,-19.613000,-6.358000,13.382000,5.140000,-3.790000,1.450000,101.800,6.887000,20.076000,-14.764000
866625,-19.613000,-11.269000,18.006000,2.590000,-1.340000,2.290000,101.800,11.186000,20.076000,-18.357000
866635,-19.613000,-12.557000,17.274000,0.370000,-0.250000,1.920000,101.800,12.210000,20.076000,-16.875000
866645,-18.850000,-10.852000,13.351000,-0.480000,-0.240000,1.090000,101.800,10.710000,19.340000,-12.870000
866655,-16.006000,-9.853000,11.486000,-0.390000,-0.540000,0.450000,101.800,9.799000,16.465000,-10.806000
866666,-12.700000,-9.108000,11.494000,-0.090000,-0.950000,0.010000,101.800,9.090000,13.208000,-10.853000
866676,-9.949000,-8.089000,11.201000,-0.100000,-1.420000,-0.260000,101.800,8.139000,10.409000,-10.566000
866686,-7.629000,-6.730000,10.161000,-0.130000,-1.890000,-0.430000,101.800,6.882000,7.992000,-9.678000
866696,-4.996000,-5.113000,8.357000,0.000000,-2.240000,-0.470000,101.800,5.357000,5.377000,-8.154000
866706,-2.240000,-3.607000,6.272000,0.120000,-2.160000,-0.330000,101.800,3.840000,2.727000,-6.451000
866716,-0.314000,-2.851000,5.066000,0.050000,-1.590000,-0.050000,101.800,2.941000,0.622000,-5.110000
866726,0.076000,-2.802000,4.917000,0.000000,-0.940000,0.300000,101.800,2.750000,-0.004000,-4.870000
866736,-0.375000,-3.436000,5.448000,-0.050000,-0.500000,0.590000,101.800,3.232000,0.191000,-5.073000
866746,-0.764000,-3.946000,6.071000,0.040000,-0.390000,0.780000,101.800,3.661000,0.566000,-5.455000
866756,-1.512000,-4.275000,6.648000,0.270000,-0.580000,0.930000,101.800,3.985000,1.142000,-6.041000
866767,-2.679000,-5.162000,7.227000,0.350000,-0.840000,1.010000,101.800,4.835000,2.323000,-6.767000
866777,-3.746000,-6.115000,7.609000,0.270000,-1.150000,0.930000,101.800,5.683000,3.553000,-7.272000
866787,-4.552000,-6.677000,7.404000,0.170000,-1.500000,0.590000,101.800,6.284000,4.549000,-7.002000
866797,-4.285000,-9.088000,5.842000,0.450000,-1.840000,0.010000,101.800,8.953000,5.110000,-4.960000
866807,-3.808000,-6.353000,5.090000,1.180000,-1.870000,-0.820000,101.800,6.605000,4.414000,-4.919000
866817,-2.873000,-3.013000,5.315000,1.240000,-1.670000,-1.280000,101.800,4.066000,3.382000,-5.242000
866827,-1.910000,-1.167000,5.546000,0.800000,-1.130000,-1.240000,101.800,1.769000,2.208000,-5.625000
866837,1.179000,-3.845000,5.961000,0.430000,-0.420000,-0.790000,101.800,2.818000,-0.473000,-5.433000
866847,-1.878000,-3.144000,6.486000,0.870000,0.590000,-0.300000,101.800,3.247000,1.205000,-5.938000
866857,-4.628000,-2.141000,7.917000,0.490000,0.770000,-0.300000,101.800,2.274000,3.789000,-7.816000
866868,-5.217000,-4.327000,9.374000,-0.240000,0.610000,-0.450000,101.800,3.588000,4.759000,-8.524000
866878,-6.777000,-5.157000,10.318000,-0.080000,0.630000,-0.540000,101.800,4.622000,6.223000,-9.120000
866888,-7.765000,-4.562000,10.995000,0.260000,0.390000,-0.620000,101.800,4.691000,7.340000,-10.078000
866898,-7.231000,-2.503000,10.795000,0.350000,-0.090000,-0.620000,101.800,2.867000,7.066000,-10.210000
866908,-6.128000,-2.444000,10.263000,0.300000,-0.590000,-0.540000,101.800,2.595000,6.399000,-9.943000
866918,-5.558000,-1.857000,8.738000,0.730000,-1.010000,-0.410000,101.800,1.250000,5.284000,-7.718000
866928,-5.773000,-1.820000,8.289000,1.650000,-1.470000,-0.160000,101.800,1.526000,5.622000,-7.318000
866938,-4.373000,-2.636000,9.545000,2.180000,-2.050000,-0.010000,101.800,2.387000,4.286000,-8.882000
866948,-3.817000,-1.824000,9.536000,2.220000,-2.240000,0.080000,101.800,2.066000,4.399000,-9.095000
866958,-1.722000,-1.037000,10.097000,1.470000,-2.050000,0.110000,101.800,1.595000,2.139000,-11.095000
866970,-2.704000,-2.056000,10.087000,0.170000,-1.360000,0.120000,101.800,1.681000,2.750000,-10.093000
866980,-3.402000,-2.554000,11.620000,-0.300000,-1.300000,-0.140000,101.800,2.610000,3.063000,-10.419000
866990,-3.479000,-5.827000,9.072000,-0.850000,-1.440000,-0.490000,101.800,2.330000,3.669000,-12.063000
867000,-3.287000,-5.141000,7.247000,-1.400000,-1.100000,-0.540000,101.800,5.892000,3.899000,-6.178000
867010,-3.365000,-1.427000,9.021000,-0.520000,-0.170000,-0.400000,101.800,2.772000,3.078000,-7.808000
867020,-4.353000,-0.073000,9.331000,0.040000,0.150000,-0.360000,101.800,0.651000,4.161000,-8.299000
867030,-2.517000,-0.675000,9.311000,0.240000,0.020000,-0.030000,101.800,0.223000,3.009000,-8.862000
867040,-2.111000,-1.965000,9.241000,0.220000,0.190000,0.200000,101.800,1.149000,2.330000,-8.732000
867050,-2.317000,-2.231000,9.402000,0.490000,0.220000,0.260000,101.800,1.970000,2.264000,-8.458000
867060,-3.138000,-1.910000,9.443000,0.920000,-0.020000,0.200000,101.800,1.725000,2.649000,-8.632000
867071,-3.265000,-2.938000,8.946000,1.450000,-0.340000,0.330000,101.800,1.924000,3.051000,-8.284000
867081,-1.821000,-5.337000,8.646000,2.080000,-0.370000,0.920000,101.800,3.921000,1.848000,-7.818000
867091,-0.922000,-6.280000,9.013000,2.650000,0.070000,1.740000,101.800,5.144000,1.389000,-8.078000
867101,-1.049000,-5.377000,7.168000,2.860000,-0.350000,1.770000,101.800,5.943000,1.063000,-7.720000
867111,1.018000,-5.560000,6.507000,2.140000,-1.190000,1.660000,101.800,5.357000,-0.779000,-7.659000
867121,-0.748000,-5.415000,6.696000,0.980000,-1.640000,1.410000,101.800,5.676000,0.492000,-7.071000
867131,-0.506000,-5.261000,7.422000,0.050000,-1.280000,1.060000,101.800,5.397000,1.171000,-7.453000
867151,0.460000,-4.544000,7.596000,-0.240000,-0.880000,1.650000,101.800,4.821000,-1.058000,-7.169000
867161,-0.251000,-3.750000,7.797000,-0.160000,-1.380000,1.930000,101.800,4.022000,-0.247000,-7.338000
867172,-0.529000,-3.101000,8.396000,-0.160000,-1.620000,1.990000,101.800,3.556000,0.333000,-7.644000
867182,-0.480000,-1.822000,8.679000,0.120000,-1.430000,2.370000,101.800,2.419000,0.164000,-7.867000
867192,-0.963000,-0.731000,8.863000,0.550000,-0.930000,2.770000,101.800,1.242000,0.607000,-8.022000
867202,-1.594000,0.022000,9.343000,0.900000,-0.550000,2.940000,101.800,0.269000,1.196000,-8.411000
867212,-1.968000,0.762000,9.099000,1.190000,-0.540000,2.940000,101.800,-0.463000,1.884000,-8.718000
867222,-1.392000,1.477000,8.008000,1.320000,-0.830000,2.710000,101.800,-1.149000,1.965000,-8.218000
867232,-1.461000,2.130000,7.610000,1.240000,-1.090000,2.380000,101.800,-1.799000,1.531000,-7.571000
867242,-2.539000,2.808000,8.463000,1.010000,-1.290000,2.110000,101.800,-2.394000,2.088000,-7.801000
867252,-2.859000,2.992000,10.081000,0.690000,-1.500000,1.800000,101.800,-2.977000,2.948000,-8.845000
867262,-2.761000,2.787000,11.719000,0.500000,-1.610000,1.510000,101.800,-2.943000,2.980000,-10.313000
867281,-2.704000,2.750000,12.392000,0.570000,-1.600000,1.500000,101.800,-2.872000,2.737000,-11.580000
867291,-3.058000,2.724000,11.909000,0.770000,-1.430000,1.670000,101.800,-2.884000,3.379000,-10.902000
867301,-3.553000,2.858000,10.737000,0.960000,-1.120000,1.730000,101.800,-3.014000,3.669000,-9.943000
867311,-3.114000,2.917000,9.700000,1.020000,-0.870000,1.640000,101.800,-2.963000,3.019000,-9.235000
867321,-2.478000,2.820000,9.351000,0.960000,-0.800000,1.480000,101.800,-2.870000,2.664000,-9.098000
867331,-2.531000,2.753000,9.414000,0.840000,-0.960000,1.290000,101.800,-2.791000,2.865000,-9.299000
867341,-2.712000,2.973000,9.689000,0.600000,-1.210000,1.010000,101.800,-3.107000,3.100000,-9.754000
867351,-2.730000,3.276000,10.278000,0.240000,-1.370000,0.610000,101.800,-3.272000,3.063000,-10.228000
867361,-2.469000,3.206000,10.597000,-0.100000,-1.350000,0.210000,101.800,-3.230000,2.600000,-10.289000
867371,-2.072000,3.064000,10.674000,-0.270000,-1.190000,-0.020000,101.800,-2.995000,2.242000,-10.308000
867376,-1.790000,2.539000,11.026000,-0.310000,-1.050000,-0.140000,101.800,-2.490000,1.818000,-10.576000
867386,-1.711000,2.078000,11.578000,-0.220000,-1.000000,-0.110000,101.800,-2.223000,1.808000,-10.978000
867396,-1.836000,2.154000,11.801000,-0.070000,-0.960000,-0.030000,101.800,-2.274000,1.948000,-11.203000
867406,-1.646000,2.147000,11.633000,0.030000,-0.830000,-0.040000,101.800,-2.147000,1.737000,-10.968000
867416,-1.362000,1.599000,11.110000,0.110000,-0.570000,-0.070000,101.800,-1.593000,1.522000,-10.409000
867426,-1.239000,1.172000,10.301000,0.230000,-0.290000,-0.070000,101.800,-1.235000,1.477000,-9.752000
867436,-1.187000,0.952000,9.753000,0.290000,-0.150000,-0.100000,101.800,-1.066000,1.387000,-9.252000
867446,-1.134000,0.744000,9.371000,0.310000,-0.180000,-0.210000,101.800,-0.742000,1.281000,-8.997000
867456,-0.807000,0.464000,9.064000,0.260000,-0.280000,-0.330000,101.800,-0.504000,0.865000,-8.671000
867466,-0.350000,0.207000,9.149000,0.220000,-0.360000,-0.390000,101.800,-0.257000,0.306000,-8.877000
867476,-0.163000,0.022000,9.777000,0.260000,-0.450000,-0.290000,101.800,-0.149000,0.198000,-9.343000
867486,-0.334000,0.007000,9.923000,0.360000,-0.520000,-0.120000,101.800,-0.078000,0.340000,-9.436000
867496,-0.096000,0.147000,9.939000,0.350000,-0.550000,-0.020000,101.800,-0.122000,0.061000,-9.919000
867506,1.173000,0.259000,10.658000,0.030000,-0.780000,0.000000,101.800,0.519000,-0.617000,-10.490000
867516,-0.269000,-1.851000,9.078000,-0.880000,-0.010000,-0.040000,101.800,1.512000,0.458000,-9.561000
867526,-0.915000,-1.302000,12.681000,-1.340000,1.280000,-0.010000,101.800,0.938000,0.544000,-12.360000
867536,-0.620000,-0.401000,14.198000,-1.030000,0.460000,0.100000,101.800,0.409000,0.382000,-12.159000
867546,-0.218000,0.331000,10.548000,-0.280000,-0.140000,0.150000,101.800,-0.580000,0.370000,-9.610000
867556,0.322000,1.114000,9.507000,0.040000,0.000000,0.240000,101.800,-1.093000,-0.129000,-9.460000
867566,0.460000,0.648000,9.861000,0.010000,0.020000,0.060000,101.800,-0.725000,-0.196000,-9.372000
867577,0.232000,0.055000,9.856000,0.030000,0.020000,-0.020000,101.800,-0.203000,-0.088000,-9.612000
867587,0.600000,-0.343000,9.902000,0.020000,0.010000,-0.040000,101.800,0.291000,-0.468000,-9.433000
867597,0.424000,-0.837000,9.883000,0.000000,0.000000,-0.040000,101.800,0.727000,-0.409000,-9.463000
867607,0.171000,-1.140000,9.821000,0.000000,0.000000,0.000000,101.800,1.039000,-0.068000,-9.392000
867617,-0.020000,-1.223000,9.854000,0.000000,0.000000,-0.050000,101.800,1.112000,0.120000,-9.468000
867627,0.132000,-0.821000,9.875000,0.000000,0.000000,-0.110000,101.800,0.727000,-0.078000,-9.451000
867637,0.245000,-0.393000,9.860000,0.000000,0.000000,-0.060000,101.800,0.276000,-0.218000,-9.460000
867647,0.155000,-0.228000,9.870000,0.000000,0.000000,0.070000,101.800,0.151000,-0.063000,-9.446000
867657,0.104000,0.022000,9.882000,0.000000,0.000000,0.150000,101.800,-0.117000,-0.063000,-9.490000
867667,-0.030000,0.107000,9.875000,0.000000,0.000000,0.210000,101.800,-0.191000,0.083000,-9.392000
867679,0.103000,0.187000,9.789000,0.000000,0.000000,0.280000,101.800,-0.389000,0.007000,-9.416000
867689,0.302000,0.076000,9.876000,0.010000,0.000000,0.350000,101.800,-0.161000,-0.144000,-9.436000
867709,0.767000,0.185000,9.842000,0.000000,0.000000,0.470000,101.800,-0.306000,-0.735000,-9.504000
867719,1.021000,0.230000,9.789000,0.010000,0.000000,0.550000,101.800,-0.269000,-0.926000,-9.392000
867729,1.078000,0.623000,9.864000,0.010000,0.000000,0.650000,101.800,-0.639000,-1.004000,-9.460000
867739,0.760000,0.540000,9.863000,0.010000,0.000000,0.750000,101.800,-0.642000,-0.691000,-9.482000
867749,0.738000,0.274000,9.845000,0.010000,0.000000,0.770000,101.800,-0.299000,-0.678000,-9.438000
867759,0.684000,0.399000,9.833000,0.010000,0.000000,0.760000,101.800,-0.487000,-0.703000,-9.492000
867769,0.070000,0.547000,9.881000,0.010000,0.000000,0.770000,101.800,-0.602000,0.223000,-9.455000
867780,-0.032000,1.298000,9.805000,0.010000,0.000000,0.550000,101.800,-1.269000,0.372000,-9.451000
867790,0.342000,1.458000,9.821000,0.000000,0.000000,0.250000,101.800,-1.598000,0.051000,-9.431000
867800,0.347000,0.093000,9.860000,0.000000,0.000000,0.050000,101.800,-0.325000,-0.186000,-9.438000
867810,0.016000,-0.175000,9.860000,0.000000,0.000000,-0.020000,101.800,-0.024000,0.046000,-9.411000
867820,0.070000,-0.017000,9.869000,0.000000,0.000000,0.000000,101.800,-0.026000,0.000000,-9.490000
867830,0.074000,-0.039000,9.845000,0.000000,0.000000,0.000000,101.800,0.000000,0.046000,-9.424000
867840,0.070000,-0.042000,9.841000,0.000000,0.000000,0.000000,101.800,-0.034000,0.049000,-9.431000
867850,0.062000,-0.033000,9.858000,0.000000,0.000000,0.000000,101.800,-0.041000,0.066000,-9.414000
867860,0.056000,-0.032000,9.849000,0.000000,0.000000,0.000000,101.800,-0.004000,0.026000,-9.379000
867870,0.072000,-0.028000,9.850000,0.000000,0.000000,0.000000,101.800,-0.051000,0.075000,-9.438000
867881,0.087000,-0.038000,9.851000,0.000000,0.000000,0.000000,101.800,-0.058000,0.041000,-9.416000
867891,0.069000,-0.036000,9.864000,0.000000,0.000000,0.000000,101.800,-0.026000,0.085000,-9.480000
867901,0.056000,-0.035000,9.847000,0.000000,0.000000,0.000000,101.800,-0.024000,0.029000,-9.446000
867911,0.067000,-0.034000,9.847000,0.000000,0.000000,0.000000,101.800,-0.034000,0.058000,-9.416000
867921,0.067000,-0.028000,9.845000,0.000000,0.000000,0.000000,101.800,-0.036000,0.066000,-9.451000
867931,0.071000,-0.034000,9.833000,0.000000,0.000000,0.000000,101.800,-0.002000,0.024000,-9.455000
867941,0.078000,-0.040000,9.845000,0.000000,0.000000,0.000000,101.800,-0.022000,0.075000,-9.468000
867951,0.064000,-0.028000,9.849000,0.000000,0.000000,0.000000,101.800,0.034000,0.053000,-9.453000
867961,0.072000,-0.024000,9.838000,0.000000,0.000000,0.000000,101.800,-0.022000,0.049000,-9.431000
867971,0.071000,-0.032000,9.860000,0.000000,0.000000,0.000000,101.800,0.012000,0.039000,-9.470000
867982,0.070000,-0.036000,9.859000,0.000000,0.000000,0.000000,101.800,-0.036000,0.019000,-9.448000
867992,0.064000,-0.041000,9.849000,0.000000,0.000000,0.000000,101.800,-0.019000,0.026000,-9.441000
868002,0.060000,-0.034000,9.843000,0.000000,0.000000,0.000000,101.800,-0.066000,0.014000,-9.470000
868012,0.062000,-0.037000,9.844000,0.000000,0.000000,0.000000,101.800,-0.031000,0.034000,-9.448000
868022,0.060000,-0.036000,9.860000,0.000000,0.000000,0.000000,101.800,-0.044000,0.100000,-9.455000
868032,0.064000,-0.047000,9.861000,0.000000,0.000000,0.000000,101.800,-0.024000,0.041000,-9.465000
868042,0.047000,-0.050000,9.857000,0.000000,0.000000,0.000000,101.800,-0.041000,0.071000,-9.458000
868052,0.059000,-0.043000,9.841000,0.000000,0.000000,0.000000,101.800,-0.046000,0.051000,-9.424000
868072,0.050000,-0.043000,9.853000,0.000000,0.000000,0.000000,101.800,-0.036000,0.061000,-9.473000
868084,0.051000,-0.049000,9.842000,0.000000,0.000000,0.000000,101.800,0.000000,0.071000,-9.424000
868094,0.059000,-0.039000,9.858000,0.000000,0.000000,0.000000,101.800,-0.046000,0.061000,-9.409000
868104,0.062000,-0.042000,9.845000,0.000000,0.000000,0.000000,101.800,-0.036000,0.058000,-9.436000
868114,0.067000,-0.038000,9.861000,0.000000,0.000000,0.000000,101.800,-0.041000,-0.004000,-9.431000
868124,0.074000,-0.020000,9.837000,0.000000,0.000000,0.000000,101.800,-0.041000,0.049000,-9.443000
868134,0.062000,-0.024000,9.845000,0.000000,0.000000,0.000000,101.800,-0.022000,0.083000,-9.372000
868144,0.065000,-0.029000,9.879000,0.000000,0.000000,0.000000,101.800,-0.041000,0.036000,-9.446000
868154,0.061000,-0.029000,9.873000,0.000000,0.000000,0.000000,101.800,-0.063000,0.034000,-9.470000
868164,0.053000,-0.035000,9.862000,0.000000,0.000000,0.000000,101.800,-0.071000,0.095000,-9.441000
868174,0.070000,-0.044000,9.833000,0.000000,0.000000,0.000000,101.800,-0.063000,0.051000,-9.465000
868185,0.057000,-0.044000,9.835000,0.000000,0.000000,0.000000,101.800,-0.029000,0.026000,-9.409000
868195,0.051000,-0.049000,9.847000,0.000000,0.000000,0.000000,101.800,-0.022000,0.041000,-9.426000
868205,0.053000,-0.043000,9.879000,0.000000,0.000000,0.000000,101.800,-0.026000,0.073000,-9.468000
868215,0.050000,-0.046000,9.854000,0.000000,0.000000,0.000000,101.800,-0.024000,0.044000,-9.446000
868225,0.065000,-0.038000,9.848000,0.000000,0.000000,0.000000,101.800,-0.049000,0.068000,-9.433000
868235,0.077000,-0.031000,9.843000,0.000000,0.000000,0.000000,101.800,-0.007000,0.012000,-9.389000
868245,0.074000,-0.022000,9.850000,0.000000,0.000000,0.000000,101.800,-0.061000,0.041000,-9.431000
868255,0.070000,-0.037000,9.854000,0.000000,0.000000,0.000000,101.800,-0.029000,0.078000,-9.409000
868265,0.071000,-0.038000,9.851000,0.000000,0.000000,0.000000,101.800,-0.026000,0.100000,-9.414000
868275,0.071000,-0.044000,9.845000,0.000000,0.000000,0.000000,101.800,-0.034000,0.083000,-9.465000
868288,0.070000,-0.033000,9.856000,0.000000,0.000000,0.000000,101.800,-0.024000,0.068000,-9.490000
868298,0.071000,-0.037000,9.851000,0.000000,0.000000,0.000000,101.800,-0.024000,0.058000,-9.414000
868308,0.053000,-0.047000,9.842000,0.000000,0.000000,0.000000,101.800,-0.024000,0.053000,-9.458000
868318,0.060000,-0.041000,9.844000,0.000000,0.000000,0.000000,101.800,-0.012000,0.034000,-9.416000
868328,0.078000,-0.052000,9.830000,0.000000,0.000000,0.000000,101.800,-0.080000,0.053000,-9.397000
868338,0.074000,-0.037000,9.815000,0.000000,0.000000,0.000000,101.800,-0.049000,0.046000,-9.438000
868348,0.067000,-0.035000,9.841000,0.000000,0.000000,0.000000,101.800,-0.024000,0.039000,-9.431000
868358,0.073000,-0.032000,9.854000,0.000000,0.000000,0.000000,101.800,-0.009000,0.039000,-9.443000
868368,0.071000,-0.025000,9.848000,0.000000,0.000000,0.000000,101.800,-0.014000,0.009000,-9.409000
868388,0.059000,-0.026000,9.815000,0.000000,0.000000,0.000000,101.800,0.012000,0.036000,-9.465000
868398,0.067000,-0.031000,9.840000,0.000000,0.000000,0.000000,101.800,-0.022000,0.071000,-9.397000
868408,0.057000,-0.019000,9.850000,0.000000,0.000000,0.000000,101.800,-0.036000,0.058000,-9.426000
868418,0.055000,-0.043000,9.860000,0.000000,0.000000,0.000000,101.800,-0.049000,0.063000,-9.473000
868428,0.049000,-0.046000,9.869000,0.000000,0.000000,0.000000,101.800,-0.022000,0.073000,-9.428000
868438,0.059000,-0.055000,9.879000,0.000000,0.000000,0.000000,101.800,-0.009000,0.031000,-9.473000
868448,0.068000,-0.039000,9.868000,0.000000,0.000000,0.000000,101.800,-0.012000,0.063000,-9.478000
868458,0.052000,-0.060000,9.861000,0.000000,0.000000,0.000000,101.800,0.009000,0.068000,-9.463000
868468,0.043000,-0.053000,9.848000,0.000000,0.000000,0.000000,101.800,-0.012000,0.080000,-9.451000
868478,0.049000,-0.043000,9.845000,0.000000,0.000000,0.000000,101.800,0.000000,0.039000,-9.497000
868489,0.047000,-0.047000,9.857000,0.000000,0.000000,0.000000,101.800,0.061000,0.061000,-9.448000
868499,0.052000,-0.039000,9.857000,0.000000,0.000000,0.000000,101.800,-0.031000,0.071000,-9.460000
868509,0.048000,-0.043000,9.841000,0.000000,0.000000,0.000000,101.800,-0.041000,0.100000,-9.463000
868519,0.040000,-0.054000,9.880000,0.000000,0.000000,0.000000,101.800,0.002000,0.029000,-9.468000
868529,0.042000,-0.054000,9.897000,0.000000,0.000000,0.000000,101.800,-0.022000,0.063000,-9.443000
868539,0.043000,-0.048000,9.863000,0.000000,0.000000,0.000000,101.800,-0.019000,0.107000,-9.463000
868549,0.034000,-0.049000,9.842000,0.000000,0.000000,0.000000,101.800,-0.029000,0.112000,-9.485000
868559,0.062000,-0.049000,9.838000,0.000000,0.000000,0.000000,101.800,0.007000,0.049000,-9.492000
868569,0.055000,-0.037000,9.843000,0.000000,0.000000,0.000000,101.800,-0.029000,0.088000,-9.431000
868579,0.059000,-0.026000,9.831000,0.000000,0.000000,0.000000,101.800,-0.041000,0.051000,-9.448000
868590,0.058000,-0.035000,9.854000,0.000000,0.000000,0.000000,101.800,-0.049000,0.056000,-9.433000
868600,0.070000,-0.038000,9.855000,0.000000,0.000000,0.000000,101.800,-0.004000,0.049000,-9.473000
868610,0.075000,-0.041000,9.857000,0.000000,0.000000,0.000000,101.800,-0.053000,0.053000,-9.451000
868620,0.076000,-0.037000,9.827000,0.000000,0.000000,0.000000,101.800,-0.019000,0.080000,-9.448000
868630,0.074000,-0.049000,9.832000,0.000000,0.000000,0.000000,101.800,-0.041000,0.029000,-9.426000
868640,0.066000,-0.044000,9.840000,0.000000,0.000000,0.000000,101.800,-0.019000,0.029000,-9.406000
868650,0.067000,-0.052000,9.853000,0.000000,0.000000,0.000000,101.800,0.024000,0.036000,-9.451000
868660,0.068000,-0.046000,9.902000,0.000000,0.000000,0.000000,101.800,-0.022000,0.058000,-9.517000
868670,0.068000,-0.074000,9.946000,0.000000,0.000000,0.000000,101.800,-0.012000,0.063000,-9.553000
868680,0.061000,-0.058000,9.875000,0.000000,0.000000,0.000000,101.800,0.036000,0.041000,-9.426000
868701,0.032000,-0.044000,9.829000,0.000000,0.000000,0.000000,101.800,-0.036000,0.068000,-9.392000
868711,0.037000,-0.037000,9.866000,0.000000,0.000000,0.000000,101.800,-0.026000,0.075000,-9.458000
868721,0.046000,-0.032000,9.867000,0.000000,0.000000,0.000000,101.800,-0.017000,0.080000,-9.463000
868731,0.041000,-0.043000,9.860000,0.000000,0.000000,0.000000,101.800,-0.017000,0.080000,-9.446000
868741,0.040000,-0.041000,9.872000,0.000000,0.000000,0.000000,101.800,-0.053000,0.102000,-9.463000
868751,0.053000,-0.058000,9.878000,0.000000,0.000000,0.000000,101.800,-0.004000,0.078000,-9.448000
868761,0.061000,-0.052000,9.870000,0.000000,0.000000,0.000000,101.800,-0.024000,0.051000,-9.455000
868771,0.049000,-0.047000,9.848000,0.000000,0.000000,0.000000,101.800,0.000000,0.019000,-9.387000
868781,0.072000,-0.053000,9.866000,0.000000,0.000000,0.000000,101.800,-0.022000,0.078000,-9.460000
868793,0.062000,-0.049000,9.876000,0.000000,0.000000,0.000000,101.800,-0.004000,0.068000,-9.468000
868803,0.061000,-0.056000,9.839000,0.000000,0.000000,0.000000,101.800,-0.012000,0.039000,-9.394000
868813,0.064000,-0.038000,9.824000,0.000000,0.000000,0.000000,101.800,-0.022000,0.053000,-9.438000
868823,0.074000,-0.045000,9.853000,0.000000,0.000000,0.000000,101.800,-0.026000,0.036000,-9.433000
868833,0.073000,-0.044000,9.867000,0.000000,0.000000,0.000000,101.800,-0.036000,0.063000,-9.446000
868843,0.050000,-0.036000,9.859000,0.000000,0.000000,0.000000,101.800,-0.004000,0.066000,-9.441000
868853,0.065000,-0.044000,9.856000,0.000000,0.000000,0.000000,101.800,-0.068000,0.078000,-9.443000
868863,0.066000,-0.035000,9.842000,0.000000,0.000000,0.000000,101.800,-0.039000,0.031000,-9.428000
868873,0.052000,-0.049000,9.862000,0.000000,0.000000,0.000000,101.800,-0.022000,0.066000,-9.453000
868883,0.049000,-0.062000,9.867000,0.000000,0.000000,0.000000,101.800,0.002000,0.049000,-9.416000
868894,0.043000,-0.047000,9.878000,0.000000,0.000000,0.000000,101.800,-0.063000,0.046000,-9.455000
868904,0.044000,-0.040000,9.868000,0.000000,0.000000,0.000000,101.800,-0.012000,0.036000,-9.414000
868914,0.067000,-0.040000,9.847000,0.000000,0.000000,0.000000,101.800,0.004000,0.044000,-9.458000
868924,0.059000,-0.037000,9.836000,0.000000,0.000000,0.000000,101.800,-0.024000,0.061000,-9.470000
868934,0.073000,-0.036000,9.846000,0.000000,0.000000,0.000000,101.800,-0.053000,0.053000,-9.451000
868944,0.055000,-0.050000,9.846000,0.000000,0.000000,0.000000,101.800,-0.019000,0.012000,-9.480000
868954,0.065000,-0.046000,9.860000,0.000000,0.000000,0.000000,101.800,-0.029000,0.046000,-9.433000
868964,0.076000,-0.037000,9.854000,0.000000,0.000000,0.000000,101.800,-0.073000,0.024000,-9.455000
868974,0.069000,-0.035000,9.822000,0.000000,0.000000,0.000000,101.800,-0.029000,0.049000,-9.458000
868984,0.049000,-0.050000,9.841000,0.000000,0.000000,0.000000,101.800,-0.041000,0.046000,-9.448000
868995,0.042000,-0.052000,9.879000,0.000000,0.000000,0.000000,101.800,0.000000,0.049000,-9.470000
869005,0.038000,-0.043000,9.868000,0.000000,0.000000,0.000000,101.800,-0.039000,0.080000,-9.448000
869025,0.037000,-0.062000,9.879000,0.000000,0.000000,0.000000,101.800,-0.007000,0.019000,-9.455000
869035,0.043000,-0.070000,9.857000,0.000000,0.000000,0.000000,101.800,-0.041000,0.093000,-9.473000
869045,0.040000,-0.063000,9.847000,0.000000,0.000000,0.000000,101.800,0.017000,0.039000,-9.441000
869055,0.046000,-0.055000,9.847000,0.000000,0.000000,0.000000,101.800,-0.004000,0.024000,-9.465000
869065,0.062000,-0.029000,9.857000,0.000000,0.000000,0.000000,101.800,-0.029000,0.105000,-9.411000
869075,0.055000,-0.034000,9.863000,0.000000,0.000000,0.000000,101.800,-0.049000,0.056000,-9.448000
869085,0.049000,-0.026000,9.869000,0.000000,0.000000,0.000000,101.800,-0.026000,0.041000,-9.460000
869097,0.050000,-0.027000,9.854000,0.000000,0.000000,0.000000,101.800,-0.083000,0.061000,-9.492000
869107,0.046000,-0.029000,9.839000,0.000000,0.000000,0.000000,101.800,0.000000,0.080000,-9.460000
869117,0.049000,-0.046000,9.844000,0.000000,0.000000,0.000000,101.800,-0.041000,0.058000,-9.460000
869127,0.050000,-0.048000,9.857000,0.000000,0.000000,0.000000,101.800,-0.029000,0.061000,-9.448000
869137,0.062000,-0.061000,9.867000,0.000000,0.000000,0.000000,101.800,0.026000,0.075000,-9.431000
869147,0.068000,-0.089000,9.851000,0.000000,0.000000,0.000000,101.800,0.031000,0.073000,-9.468000
869157,0.071000,-0.071000,9.826000,0.000000,0.000000,0.000000,101.800,-0.012000,0.031000,-9.451000
869167,0.073000,-0.068000,9.854000,0.000000,0.000000,0.000000,101.800,-0.004000,0.036000,-9.433000
869177,0.056000,-0.061000,9.866000,0.000000,0.000000,0.000000,101.800,-0.039000,-0.017000,-9.455000
869187,0.047000,-0.054000,9.849000,0.000000,0.000000,0.000000,101.800,-0.044000,0.012000,-9.436000
869198,0.064000,-0.038000,9.873000,0.000000,0.000000,0.000000,101.800,0.039000,0.058000,-9.448000
869208,0.035000,-0.034000,9.870000,0.000000,0.000000,0.000000,101.800,-0.019000,0.075000,-9.448000
869218,0.028000,-0.037000,9.870000,0.000000,0.000000,0.000000,101.800,-0.019000,0.117000,-9.433000
869228,0.029000,-0.034000,9.863000,0.000000,0.000000,0.000000,101.800,-0.041000,0.066000,-9.426000
869238,0.034000,-0.021000,9.873000,0.000000,0.000000,0.000000,101.800,-0.046000,0.134000,-9.463000
869248,0.052000,-0.031000,9.870000,0.000000,0.000000,0.000000,101.800,-0.024000,0.125000,-9.438000
869258,0.054000,-0.038000,9.860000,0.000000,0.000000,0.000000,101.800,0.009000,0.102000,-9.453000
869268,0.052000,-0.057000,9.848000,0.000000,0.000000,0.000000,101.800,-0.002000,0.075000,-9.436000
869278,0.076000,-0.059000,9.850000,0.000000,0.000000,0.000000,101.800,0.000000,0.039000,-9.473000
869288,0.071000,-0.052000,9.864000,0.000000,0.000000,0.000000,101.800,0.029000,0.063000,-9.433000
869299,0.068000,-0.051000,9.862000,0.000000,0.000000,0.000000,101.800,0.007000,0.053000,-9.441000
869309,0.058000,-0.065000,9.848000,0.000000,0.000000,0.000000,101.800,0.019000,0.080000,-9.441000
869319,0.073000,-0.056000,9.856000,0.000000,0.000000,0.000000,101.800,-0.019000,0.063000,-9.487000
869339,0.068000,-0.053000,9.846000,0.000000,0.000000,0.000000,101.800,-0.012000,0.024000,-9.370000
869349,0.068000,-0.042000,9.843000,0.000000,0.000000,0.000000,101.800,-0.019000,0.068000,-9.424000
869359,0.055000,-0.045000,9.859000,0.000000,0.000000,0.000000,101.800,0.012000,0.066000,-9.431000
869369,0.058000,-0.038000,9.852000,0.000000,0.000000,0.000000,101.800,-0.022000,0.026000,-9.433000
869379,0.061000,-0.045000,9.842000,0.000000,0.000000,0.000000,101.800,-0.061000,0.034000,-9.409000
869389,0.049000,-0.051000,9.842000,0.000000,0.000000,0.000000,101.800,-0.034000,0.100000,-9.404000
869400,0.046000,-0.053000,9.851000,0.000000,0.000000,0.000000,101.800,-0.004000,0.066000,-9.424000
869410,0.043000,-0.036000,9.863000,0.000000,0.000000,0.000000,101.800,-0.012000,0.083000,-9.463000
869420,0.034000,-0.041000,9.851000,0.000000,0.000000,0.000000,101.800,-0.044000,0.063000,-9.448000
869430,0.047000,-0.051000,9.844000,0.000000,0.000000,0.000000,101.800,0.014000,0.056000,-9.458000
869440,0.055000,-0.024000,9.875000,0.000000,0.000000,0.000000,101.800,-0.029000,0.105000,-9.455000
869450,0.062000,-0.028000,9.857000,0.000000,0.000000,0.000000,101.800,-0.019000,0.075000,-9.436000
869460,0.067000,-0.037000,9.842000,0.000000,0.000000,0.000000,101.800,-0.022000,0.066000,-9.458000
869470,0.069000,-0.052000,9.854000,0.000000,0.000000,0.000000,101.800,0.000000,0.044000,-9.453000
869480,0.062000,-0.035000,9.853000,0.000000,0.000000,0.000000,101.800,0.002000,0.078000,-9.421000
869490,0.069000,-0.041000,9.844000,0.000000,0.000000,0.000000,101.800,0.004000,0.100000,-9.465000
869504,0.068000,-0.043000,9.854000,0.000000,0.000000,0.000000,101.800,-0.022000,0.095000,-9.487000
869514,0.042000,-0.050000,9.838000,0.000000,0.000000,0.000000,101.800,0.041000,0.095000,-9.428000
869524,0.052000,-0.079000,9.846000,0.000000,0.000000,0.000000,101.800,-0.044000,0.073000,-9.436000
869534,0.067000,-0.070000,9.853000,0.000000,0.000000,0.000000,101.800,0.026000,0.068000,-9.428000
869544,0.053000,-0.056000,9.862000,0.000000,0.000000,0.000000,101.800,-0.002000,0.036000,-9.446000
869554,0.049000,-0.043000,9.873000,0.000000,0.000000,0.000000,101.800,-0.044000,0.056000,-9.414000
869564,0.052000,-0.049000,9.856000,0.000000,0.000000,0.000000,101.800,-0.022000,0.102000,-9.431000
869574,0.058000,-0.030000,9.860000,0.000000,0.000000,0.000000,101.800,-0.024000,0.073000,-9.421000
869584,0.059000,-0.013000,9.879000,0.000000,0.000000,0.000000,101.800,0.007000,0.063000,-9.426000
869594,0.051000,-0.027000,9.844000,0.000000,0.000000,0.000000,101.800,-0.026000,0.066000,-9.458000
869604,0.040000,-0.037000,9.853000,0.000000,0.000000,0.000000,101.800,-0.034000,0.034000,-9.424000
869614,0.043000,-0.031000,9.848000,0.000000,0.000000,0.000000,101.800,-0.053000,0.080000,-9.451000
869624,0.064000,-0.035000,9.853000,0.000000,0.000000,0.000000,101.800,-0.002000,0.071000,-9.411000
869634,0.068000,-0.058000,9.837000,0.000000,0.000000,0.000000,101.800,0.009000,0.078000,-9.441000
869644,0.058000,-0.071000,9.859000,0.000000,0.000000,0.000000,101.800,-0.007000,0.105000,-9.416000
869664,0.054000,-0.071000,9.842000,0.000000,0.000000,0.000000,101.800,-0.004000,0.058000,-9.482000
869674,0.067000,-0.063000,9.857000,0.000000,0.000000,0.000000,101.800,0.000000,0.046000,-9.409000
869684,0.068000,-0.054000,9.851000,0.000000,0.000000,0.000000,101.800,-0.039000,0.068000,-9.438000
869694,0.063000,-0.046000,9.853000,0.000000,0.000000,0.000000,101.800,-0.009000,0.053000,-9.397000
869704,0.070000,-0.041000,9.853000,0.000000,0.000000,0.000000,101.800,-0.026000,0.088000,-9.424000
869714,0.062000,-0.037000,9.867000,0.000000,0.000000,0.000000,101.800,-0.026000,0.066000,-9.446000
869724,0.057000,-0.035000,9.845000,0.000000,0.000000,0.000000,101.800,-0.046000,0.090000,-9.402000
869734,0.057000,-0.035000,9.845000,0.000000,0.000000,0.000000,101.800,0.002000,0.049000,-9.448000
869744,0.037000,-0.038000,9.854000,0.000000,0.000000,0.000000,101.800,0.004000,0.063000,-9.441000
869754,0.046000,-0.054000,9.862000,0.000000,0.000000,0.000000,101.800,-0.012000,0.046000,-9.463000
869764,0.041000,-0.043000,9.861000,0.000000,0.000000,0.000000,101.800,-0.041000,0.102000,-9.433000
869774,0.046000,-0.053000,9.859000,0.000000,0.000000,0.000000,101.800,0.024000,0.056000,-9.443000
869784,0.049000,-0.053000,9.860000,0.000000,0.000000,0.000000,101.800,0.017000,0.078000,-9.424000
869794,0.050000,-0.050000,9.855000,0.000000,0.000000,0.000000,101.800,0.007000,0.115000,-9.443000
869816,0.055000,-0.047000,9.838000,0.000000,0.000000,0.000000,101.800,-0.012000,0.049000,-9.436000
869826,0.070000,-0.051000,9.848000,0.000000,0.000000,0.000000,101.800,-0.017000,0.053000,-9.451000
869836,0.063000,-0.044000,9.860000,0.000000,0.000000,0.000000,101.800,0.014000,0.061000,-9.448000
869846,0.055000,-0.038000,9.870000,0.000000,0.000000,0.000000,101.800,-0.017000,0.061000,-9.426000
869856,0.057000,-0.037000,9.860000,0.000000,0.000000,0.000000,101.800,-0.063000,0.075000,-9.453000
869866,0.043000,-0.054000,9.847000,0.000000,0.000000,0.000000,101.800,0.017000,0.053000,-9.436000
869876,0.053000,-0.065000,9.853000,0.000000,0.000000,0.000000,101.800,0.026000,0.046000,-9.441000
869886,0.064000,-0.035000,9.869000,0.000000,0.000000,0.000000,101.800,-0.012000,0.080000,-9.470000
869896,0.068000,-0.048000,9.868000,0.000000,0.000000,0.000000,101.800,-0.009000,0.056000,-9.451000
869906,0.058000,-0.027000,9.824000,0.000000,0.000000,0.000000,101.800,-0.022000,0.083000,-9.409000
869917,0.044000,-0.033000,9.841000,0.000000,0.000000,0.000000,101.800,-0.029000,0.095000,-9.436000
869927,0.062000,-0.034000,9.851000,0.000000,0.000000,0.000000,101.800,-0.024000,0.066000,-9.397000
869937,0.062000,-0.041000,9.853000,0.000000,0.000000,0.000000,101.800,-0.058000,0.058000,-9.458000
869947,0.044000,-0.031000,9.868000,0.000000,0.000000,0.000000,101.800,-0.031000,0.068000,-9.468000
869957,0.059000,-0.028000,9.844000,0.000000,0.000000,0.000000,101.800,-0.009000,0.051000,-9.448000
869967,0.039000,-0.055000,9.856000,0.000000,0.000000,0.000000,101.800,-0.019000,0.085000,-9.424000
869977,0.050000,-0.064000,9.853000,0.000000,0.000000,0.000000,101.800,0.000000,0.071000,-9.443000
869997,0.061000,-0.062000,9.856000,0.000000,0.000000,0.000000,101.800,-0.026000,0.093000,-9.448000
870007,0.061000,-0.065000,9.874000,0.000000,0.000000,0.000000,101.800,-0.017000,0.085000,-9.433000
870018,0.067000,-0.046000,9.853000,0.000000,0.000000,0.000000,101.800,0.019000,0.041000,-9.480000
870028,0.077000,-0.044000,9.833000,0.000000,0.000000,0.000000,101.800,-0.017000,0.031000,-9.451000
870038,0.058000,-0.049000,9.836000,0.000000,0.000000,0.000000,101.800,-0.022000,0.105000,-9.470000
870048,0.052000,-0.041000,9.860000,0.000000,0.000000,0.000000,101.800,-0.014000,0.080000,-9.431000
870058,0.059000,-0.033000,9.854000,0.000000,0.000000,0.000000,101.800,-0.058000,0.056000,-9.414000
870068,0.065000,-0.035000,9.860000,0.000000,0.000000,0.000000,101.800,-0.044000,0.078000,-9.421000
870078,0.049000,-0.043000,9.843000,0.000000,0.000000,0.000000,101.800,-0.002000,0.056000,-9.473000
870088,0.036000,-0.046000,9.856000,0.000000,0.000000,0.000000,101.800,-0.026000,0.063000,-9.438000
870098,0.047000,-0.039000,9.860000,0.000000,0.000000,0.000000,101.800,-0.022000,0.088000,-9.512000
870108,0.064000,-0.040000,9.862000,0.000000,0.000000,0.000000,101.800,-0.002000,0.061000,-9.424000
870119,0.049000,-0.044000,9.840000,0.000000,0.000000,0.000000,101.800,-0.014000,0.110000,-9.416000
870129,0.053000,-0.042000,9.844000,0.000000,0.000000,0.000000,101.800,0.000000,0.058000,-9.455000
870139,0.049000,-0.053000,9.865000,0.000000,0.000000,0.000000,101.800,0.031000,0.093000,-9.465000
870149,0.044000,-0.052000,9.859000,0.000000,0.000000,0.000000,101.800,0.022000,0.095000,-9.448000
870159,0.038000,-0.063000,9.847000,0.000000,0.000000,0.000000,101.800,-0.061000,0.075000,-9.438000
870169,0.043000,-0.052000,9.838000,0.000000,0.000000,0.000000,101.800,-0.019000,0.083000,-9.451000
870179,0.070000,-0.052000,9.824000,0.000000,0.000000,0.000000,101.800,-0.009000,0.071000,-9.438000
870189,0.059000,-0.038000,9.848000,0.000000,0.000000,0.000000,101.800,0.031000,0.053000,-9.397000
870199,0.050000,-0.027000,9.844000,0.000000,0.000000,0.000000,101.800,0.026000,0.095000,-9.475000
870209,0.064000,-0.035000,9.866000,0.000000,0.000000,0.000000,101.800,-0.009000,0.034000,-9.465000
870221,0.053000,-0.042000,9.878000,0.000000,0.000000,0.000000,101.800,-0.014000,0.004000,-9.455000
870231,0.053000,-0.037000,9.847000,0.000000,0.000000,0.000000,101.800,-0.029000,0.073000,-9.480000
870241,0.053000,-0.056000,9.835000,0.000000,0.000000,0.000000,101.800,-0.007000,0.056000,-9.470000
870251,0.038000,-0.052000,9.854000,0.000000,0.000000,0.000000,101.800,-0.024000,0.105000,-9.441000
870261,0.058000,-0.035000,9.846000,0.000000,0.000000,0.000000,101.800,-0.007000,0.083000,-9.428000
870271,0.058000,-0.042000,9.860000,0.000000,0.000000,0.000000,101.800,-0.036000,0.044000,-9.475000
870281,0.064000,-0.047000,9.869000,0.000000,0.000000,0.000000,101.800,0.009000,0.093000,-9.480000
870291,0.059000,-0.045000,9.860000,0.000000,0.000000,0.000000,101.800,-0.022000,0.083000,-9.387000
870301,0.062000,-0.049000,9.847000,0.000000,0.000000,0.000000,101.800,0.014000,0.132000,-9.394000
870322,0.076000,-0.040000,9.838000,0.000000,0.000000,0.000000,101.800,0.002000,0.017000,-9.409000
870332,0.053000,-0.045000,9.857000,0.000000,0.000000,0.000000,101.800,-0.004000,0.061000,-9.470000
870342,0.060000,-0.041000,9.866000,0.000000,0.000000,0.000000,101.800,0.000000,0.053000,-9.421000
870352,0.056000,-0.046000,9.845000,0.000000,0.000000,0.000000,101.800,0.000000,0.026000,-9.480000
870362,0.055000,-0.028000,9.863000,0.000000,0.000000,0.000000,101.800,-0.066000,0.058000,-9.448000
870372,0.051000,-0.025000,9.869000,0.000000,0.000000,0.000000,101.800,-0.004000,0.075000,-9.460000
870382,0.025000,-0.055000,9.882000,0.000000,0.000000,0.000000,101.800,-0.031000,0.107000,-9.490000
870392,0.031000,-0.056000,9.862000,0.000000,0.000000,0.000000,101.800,-0.049000,0.129000,-9.428000
870402,0.026000,-0.053000,9.838000,0.000000,0.000000,0.000000,101.800,0.034000,0.151000,-9.436000
870412,0.028000,-0.057000,9.848000,0.000000,0.000000,0.000000,101.800,0.022000,0.134000,-9.428000
870423,0.053000,-0.047000,9.862000,0.000000,0.000000,0.000000,101.800,-0.024000,0.061000,-9.409000
870433,0.064000,-0.057000,9.870000,0.000000,0.000000,0.000000,101.800,-0.031000,0.090000,-9.448000
870443,0.059000,-0.053000,9.881000,0.000000,0.000000,0.000000,101.800,-0.019000,0.046000,-9.421000
870453,0.070000,-0.047000,9.884000,0.000000,0.000000,0.000000,101.800,-0.036000,0.036000,-9.490000
870463,0.058000,-0.043000,9.869000,0.000000,0.000000,0.000000,101.800,-0.014000,0.044000,-9.534000
870473,0.035000,-0.039000,9.866000,0.000000,0.000000,0.000000,101.800,-0.024000,0.068000,-9.460000
870483,0.047000,-0.038000,9.842000,0.000000,0.000000,0.000000,101.800,0.036000,0.056000,-9.475000
870493,0.059000,-0.035000,9.841000,0.000000,0.000000,0.000000,101.800,-0.026000,0.088000,-9.397000
870503,0.047000,-0.052000,9.817000,0.000000,0.000000,0.000000,101.800,-0.022000,0.075000,-9.453000
870513,0.053000,-0.058000,9.829000,0.000000,0.000000,0.000000,101.800,-0.039000,0.093000,-9.428000
870532,0.094000,-0.076000,9.826000,0.000000,0.000000,0.000000,101.800,0.007000,0.034000,-9.416000
870542,0.122000,-0.062000,9.827000,0.000000,0.000000,0.000000,101.800,-0.031000,-0.004000,-9.399000
870552,0.100000,-0.037000,9.834000,0.000000,0.000000,0.000000,101.800,-0.044000,0.036000,-9.402000
870562,0.082000,-0.022000,9.860000,0.000000,0.000000,0.000000,101.800,-0.066000,0.039000,-9.406000
870572,0.074000,-0.005000,9.835000,0.000000,0.000000,0.000000,101.800,-0.066000,0.083000,-9.409000
870582,0.043000,-0.020000,9.862000,0.000000,0.000000,0.000000,101.800,-0.049000,0.095000,-9.451000
870592,0.026000,-0.016000,9.862000,0.000000,0.000000,0.000000,101.800,-0.063000,0.095000,-9.402000
870602,0.022000,-0.028000,9.865000,0.000000,0.000000,0.000000,101.800,-0.012000,0.100000,-9.458000
870612,0.038000,-0.041000,9.849000,0.000000,0.000000,0.000000,101.800,0.022000,0.115000,-9.443000
870622,0.043000,-0.052000,9.876000,0.000000,0.000000,0.000000,101.800,0.022000,0.105000,-9.475000
870637,0.072000,-0.060000,9.863000,0.000000,0.000000,0.000000,101.800,0.000000,0.056000,-9.399000
870647,0.080000,-0.062000,9.847000,0.000000,0.000000,0.000000,101.800,-0.002000,0.017000,-9.438000
870657,0.077000,-0.071000,9.859000,0.000000,0.000000,0.000000,101.800,0.012000,0.053000,-9.465000
870667,0.079000,-0.065000,9.859000,0.000000,0.000000,0.000000,101.800,-0.002000,0.063000,-9.436000
870677,0.066000,-0.050000,9.844000,0.000000,0.000000,0.000000,101.800,0.002000,0.063000,-9.414000
870687,0.050000,-0.056000,9.843000,0.000000,0.000000,0.000000,101.800,0.002000,0.024000,-9.421000
870697,0.044000,-0.026000,9.861000,0.000000,0.000000,0.000000,101.800,-0.017000,0.090000,-9.446000
870707,0.054000,-0.020000,9.864000,0.000000,0.000000,0.000000,101.800,-0.049000,0.093000,-9.470000
870717,0.040000,-0.023000,9.847000,0.000000,0.000000,0.000000,101.800,-0.056000,0.071000,-9.451000
870727,0.043000,-0.028000,9.855000,0.000000,0.000000,0.000000,101.800,-0.009000,0.090000,-9.470000
870737,0.071000,-0.052000,9.854000,0.000000,0.000000,0.000000,101.800,-0.004000,0.071000,-9.428000
870747,0.066000,-0.062000,9.851000,0.000000,0.000000,0.000000,101.800,-0.031000,0.085000,-9.431000
870757,0.073000,-0.061000,9.853000,0.000000,0.000000,0.000000,101.800,-0.002000,0.029000,-9.458000
870767,0.062000,-0.047000,9.840000,0.000000,0.000000,0.000000,101.800,-0.004000,0.044000,-9.397000
870777,0.062000,-0.055000,9.842000,0.000000,0.000000,0.000000,101.800,-0.044000,0.083000,-9.419000
870787,0.069000,-0.046000,9.854000,0.000000,0.000000,0.000000,101.800,0.002000,0.125000,-9.443000
870797,0.053000,-0.040000,9.850000,0.000000,0.000000,0.000000,101.800,0.012000,0.075000,-9.446000
870807,0.056000,-0.026000,9.866000,0.000000,0.000000,0.000000,101.800,-0.034000,0.117000,-9.468000
870817,0.045000,-0.039000,9.858000,0.000000,0.000000,0.000000,101.800,0.002000,0.075000,-9.424000
870828,0.050000,-0.041000,9.868000,0.000000,0.000000,0.000000,101.800,-0.019000,0.073000,-9.431000
870838,0.062000,-0.028000,9.864000,0.000000,0.000000,0.000000,101.800,-0.056000,0.078000,-9.443000
870848,0.067000,-0.028000,9.853000,0.000000,0.000000,0.000000,101.800,-0.039000,0.142000,-9.411000
870858,0.066000,-0.044000,9.839000,0.000000,0.000000,0.000000,101.800,-0.029000,0.063000,-9.419000
870868,0.061000,-0.037000,9.849000,0.000000,0.000000,0.000000,101.800,-0.019000,0.053000,-9.448000
870878,0.084000,-0.047000,9.835000,0.000000,0.000000,0.000000,101.800,0.007000,0.029000,-9.411000
870888,0.064000,-0.056000,9.836000,0.000000,0.000000,0.000000,101.800,0.017000,0.044000,-9.426000
870898,0.063000,-0.065000,9.860000,0.000000,0.000000,0.000000,101.800,-0.009000,0.075000,-9.438000
870908,0.048000,-0.050000,9.872000,0.000000,0.000000,0.000000,101.800,0.004000,0.053000,-9.470000
870918,0.059000,-0.036000,9.866000,0.000000,0.000000,0.000000,101.800,-0.019000,0.058000,-9.419000
870930,0.047000,-0.040000,9.859000,0.000000,0.000000,0.000000,101.800,0.024000,0.107000,-9.448000
870950,0.038000,-0.032000,9.851000,0.000000,0.000000,0.000000,101.800,-0.036000,0.159000,-9.411000
870960,0.043000,-0.037000,9.857000,0.000000,0.000000,0.000000,101.800,-0.022000,0.134000,-9.446000
870970,0.053000,-0.024000,9.869000,0.000000,0.000000,0.000000,101.800,-0.036000,0.093000,-9.465000
870980,0.071000,-0.028000,9.853000,0.000000,0.000000,0.000000,101.800,-0.014000,0.112000,-9.433000
870990,0.064000,-0.041000,9.817000,0.000000,0.000000,0.000000,101.800,-0.031000,0.093000,-9.384000
871000,0.084000,-0.025000,9.768000,0.000000,0.000000,0.000000,101.800,-0.024000,0.056000,-9.414000
871010,0.098000,-0.025000,9.739000,0.000000,0.000000,0.000000,101.800,0.002000,0.044000,-9.301000
871020,0.094000,-0.031000,9.915000,0.000000,0.000000,0.000000,101.800,-0.034000,0.053000,-9.458000
871031,0.070000,-0.070000,10.087000,0.000000,0.000000,0.000000,101.800,-0.026000,0.056000,-9.617000
871041,0.037000,-0.104000,10.002000,0.000000,0.000000,0.000000,101.800,0.049000,0.068000,-9.605000
871051,0.031000,-0.105000,9.790000,0.000000,0.000000,0.000000,101.800,0.066000,0.090000,-9.424000
871061,0.029000,-0.078000,9.741000,0.000000,0.000000,0.000000,101.800,0.041000,0.139000,-9.333000
871071,0.039000,-0.053000,9.790000,0.000000,0.000000,0.000000,101.800,-0.012000,0.095000,-9.379000
871081,0.058000,-0.023000,9.834000,0.000000,0.000000,0.000000,101.800,-0.080000,0.098000,-9.330000
871091,0.062000,-0.007000,9.882000,0.000000,0.000000,0.000000,101.800,-0.056000,0.053000,-9.419000
871101,0.059000,0.000000,9.939000,0.000000,0.000000,0.000000,101.800,-0.063000,0.093000,-9.522000
871111,0.062000,-0.005000,9.890000,0.000000,0.000000,0.000000,101.800,-0.068000,0.073000,-9.500000
871121,0.073000,-0.007000,9.758000,0.000000,0.000000,0.000000,101.800,-0.026000,0.034000,-9.370000
871132,0.070000,-0.020000,9.739000,0.000000,0.000000,0.000000,101.800,-0.078000,0.024000,-9.313000
871142,0.058000,-0.035000,9.891000,0.000000,0.000000,0.000000,101.800,-0.036000,0.056000,-9.458000
871152,0.049000,-0.081000,9.970000,0.000000,0.000000,0.000000,101.800,-0.014000,0.022000,-9.566000
871162,0.050000,-0.098000,9.883000,0.000000,0.000000,0.000000,101.800,0.000000,0.122000,-9.463000
871172,0.049000,-0.085000,9.790000,0.000000,0.000000,0.000000,101.800,0.009000,0.049000,-9.411000
871182,0.044000,-0.088000,9.794000,0.000000,0.000000,0.000000,101.800,0.029000,0.075000,-9.409000
871192,0.058000,-0.059000,9.812000,0.000000,0.000000,0.000000,101.800,-0.051000,0.063000,-9.402000
871202,0.082000,-0.035000,9.835000,0.000000,0.000000,0.000000,101.800,-0.014000,0.024000,-9.441000
871212,0.095000,-0.007000,9.880000,0.000000,0.000000,0.000000,101.800,-0.024000,-0.022000,-9.431000
871222,0.083000,0.020000,9.854000,0.000000,0.000000,0.000000,101.800,-0.115000,0.039000,-9.502000
871233,0.064000,0.027000,9.824000,0.000000,0.000000,0.000000,101.800,-0.120000,0.049000,-9.416000
871243,0.068000,0.009000,9.815000,0.000000,0.000000,0.000000,101.800,-0.090000,0.075000,-9.372000
871253,0.044000,-0.019000,9.873000,0.000000,0.000000,0.000000,101.800,-0.036000,0.051000,-9.411000
871273,0.034000,-0.104000,9.877000,0.000000,0.000000,0.000000,101.800,-0.007000,0.080000,-9.482000
871283,0.046000,-0.095000,9.845000,0.000000,0.000000,0.000000,101.800,0.026000,0.071000,-9.424000
871293,0.036000,-0.084000,9.839000,0.000000,0.000000,0.000000,101.800,0.031000,0.090000,-9.416000
871303,0.050000,-0.059000,9.823000,0.000000,0.000000,0.000000,101.800,-0.004000,0.049000,-9.433000
871313,0.065000,-0.047000,9.841000,0.000000,0.000000,0.000000,101.800,-0.029000,0.083000,-9.424000
871323,0.083000,-0.034000,9.850000,0.000000,0.000000,0.000000,101.800,-0.019000,0.080000,-9.431000
871335,0.065000,-0.008000,9.887000,0.000000,0.000000,0.000000,101.800,-0.078000,0.068000,-9.480000
871345,0.051000,-0.016000,9.846000,0.000000,0.000000,0.000000,101.800,-0.075000,0.063000,-9.460000
871355,0.064000,-0.022000,9.840000,0.000000,0.000000,0.000000,101.800,-0.058000,0.102000,-9.453000
871365,0.059000,-0.024000,9.877000,0.000000,0.000000,0.000000,101.800,-0.041000,0.063000,-9.433000
871375,0.034000,-0.031000,9.875000,0.000000,0.000000,0.000000,101.800,-0.051000,0.049000,-9.448000
871385,0.041000,-0.055000,9.840000,0.000000,0.000000,0.000000,101.800,-0.017000,0.110000,-9.448000
871395,0.058000,-0.085000,9.825000,0.000000,0.000000,0.000000,101.800,-0.012000,0.088000,-9.392000
871405,0.067000,-0.077000,9.846000,0.000000,0.000000,0.000000,101.800,0.039000,0.095000,-9.441000
871415,0.076000,-0.073000,9.875000,0.000000,0.000000,0.000000,101.800,0.053000,0.049000,-9.414000
871425,0.075000,-0.065000,9.878000,0.000000,0.000000,0.000000,101.800,-0.004000,0.056000,-9.448000
871436,0.058000,-0.055000,9.893000,0.000000,0.000000,0.000000,101.800,-0.041000,0.066000,-9.433000
871446,0.067000,-0.044000,9.876000,0.000000,0.000000,0.000000,101.800,-0.012000,0.044000,-9.441000
871456,0.065000,-0.027000,9.826000,0.000000,0.000000,0.000000,101.800,-0.073000,0.085000,-9.416000
871466,0.040000,-0.013000,9.809000,0.000000,0.000000,0.000000,101.800,-0.026000,0.080000,-9.375000
871476,0.051000,-0.021000,9.853000,0.000000,0.000000,0.000000,101.800,-0.058000,0.098000,-9.414000
871486,0.056000,-0.027000,9.869000,0.000000,0.000000,0.000000,101.800,-0.044000,0.095000,-9.436000
871496,0.037000,-0.040000,9.884000,0.000000,0.000000,0.000000,101.800,-0.014000,0.147000,-9.490000
871506,0.047000,-0.056000,9.863000,0.000000,0.000000,0.000000,101.800,-0.053000,0.041000,-9.470000
871516,0.066000,-0.066000,9.841000,0.000000,0.000000,0.000000,101.800,-0.019000,0.095000,-9.424000
871526,0.053000,-0.068000,9.838000,0.000000,0.000000,0.000000,101.800,-0.004000,0.078000,-9.411000
871537,0.058000,-0.079000,9.848000,0.000000,0.000000,0.000000,101.800,-0.024000,0.073000,-9.448000
871547,0.061000,-0.068000,9.866000,0.000000,0.000000,0.000000,101.800,0.007000,0.134000,-9.438000
871557,0.046000,-0.076000,9.863000,0.000000,0.000000,0.000000,101.800,-0.034000,0.078000,-9.451000
