timestamp_ms,accel_x_g,accel_y_g,accel_z_g,gyro_x_dps,gyro_y_dps,gyro_z_dps,pressure_kpa,accel_lp_x_g,accel_lp_y_g,accel_lp_z_g
25965,0.034,-0.050,9.798,0.00,0.00,0.00,100.23,-0.024,0.068,-9.441
25975,0.031,-0.044,9.880,0.00,0.00,0.00,100.23,0.012,0.073,-9.478
25985,0.034,-0.039,9.830,0.00,0.00,0.00,100.23,-0.039,0.068,-9.421
25995,0.040,-0.040,9.829,0.00,0.00,0.00,100.23,-0.009,0.053,-9.468
26005,0.046,-0.053,9.838,0.00,0.00,0.00,100.23,-0.014,0.088,-9.438
26015,0.050,-0.061,9.843,0.00,0.00,0.00,100.23,0.002,0.107,-9.441
26025,0.046,-0.048,9.844,0.00,0.00,0.00,100.23,-0.012,0.098,-9.402
26035,0.045,-0.043,9.843,0.00,0.00,0.00,100.23,-0.019,0.031,-9.433
26045,0.043,-0.047,9.833,0.00,0.00,0.00,100.23,-0.068,0.019,-9.431
26055,0.049,-0.030,9.843,0.00,0.00,0.00,100.23,0.024,0.000,-9.419
26066,0.059,-0.034,9.844,0.00,0.00,0.00,100.23,-0.009,0.107,-9.428
26076,0.049,-0.035,9.841,0.00,0.00,0.00,100.23,-0.014,0.095,-9.436
26086,0.040,-0.050,9.849,0.00,0.00,0.00,100.23,-0.061,0.071,-9.451
26106,0.066,-0.046,9.840,0.00,0.00,0.00,100.23,-0.031,0.073,-9.441
26116,0.041,-0.048,9.851,0.00,0.00,0.00,100.23,-0.068,0.083,-9.433
26126,0.043,-0.033,9.843,0.00,0.00,0.00,100.23,0.007,0.093,-9.443
26136,0.044,-0.037,9.855,0.00,0.00,0.00,100.23,-0.009,0.100,-9.443
26146,0.044,-0.032,9.845,0.00,0.00,0.00,100.23,-0.026,0.044,-9.424
26156,0.045,-0.032,9.817,0.00,0.00,0.00,100.23,-0.029,0.068,-9.424
26168,0.051,-0.041,9.834,0.00,0.00,0.00,100.23,-0.085,0.075,-9.377
26178,0.037,-0.031,9.835,0.00,0.00,0.00,100.23,-0.029,0.053,-9.448
26188,0.055,-0.038,9.849,0.00,0.00,0.00,100.23,-0.022,0.041,-9.409
26198,0.061,-0.043,9.844,0.00,0.00,0.00,100.23,0.002,0.041,-9.470
26208,0.046,-0.050,9.845,0.00,0.00,0.00,100.23,-0.031,0.075,-9.433
26218,0.050,-0.064,9.821,0.00,0.00,0.00,100.23,-0.036,0.058,-9.443
26228,0.039,-0.045,9.835,0.00,0.00,0.00,100.23,-0.031,0.098,-9.404
26238,0.056,-0.047,9.851,0.00,0.00,0.00,100.23,-0.068,0.068,-9.448
26248,0.044,-0.044,9.842,0.00,0.00,0.00,100.23,-0.024,0.068,-9.426
26258,0.035,-0.057,9.843,0.00,0.00,0.00,100.23,0.026,0.098,-9.399
26269,0.052,-0.047,9.847,0.00,0.00,0.00,100.23,-0.009,0.058,-9.411
26279,0.052,-0.038,9.845,0.00,0.00,0.00,100.23,-0.002,0.075,-9.404
26289,0.050,-0.037,9.842,0.00,0.00,0.00,100.23,-0.009,0.105,-9.448
26299,0.048,-0.041,9.850,0.00,0.00,0.00,100.23,-0.004,0.014,-9.394
26319,0.045,-0.046,9.847,0.00,0.00,0.00,100.23,-0.014,0.075,-9.448
26329,0.026,-0.038,9.851,0.00,0.00,0.00,100.23,-0.022,0.063,-9.475
26339,0.036,-0.034,9.860,0.00,0.00,0.00,100.23,-0.009,0.068,-9.446
26349,0.044,-0.041,9.850,0.00,0.00,0.00,100.23,-0.049,0.085,-9.411
26359,0.038,-0.028,9.857,0.00,0.00,0.00,100.23,-0.031,0.073,-9.404
26370,0.037,-0.046,9.857,0.00,0.00,0.00,100.23,-0.026,0.083,-9.426
26380,0.048,-0.038,9.856,0.00,0.00,0.00,100.23,-0.031,0.046,-9.460
26390,0.048,-0.043,9.839,0.00,0.00,0.00,100.23,-0.026,0.051,-9.446
26400,0.055,-0.047,9.845,0.00,0.00,0.00,100.23,0.012,0.058,-9.451
26410,0.054,-0.039,9.842,0.00,0.00,0.00,100.23,-0.056,0.085,-9.443
26420,0.053,-0.037,9.835,0.00,0.00,0.00,100.23,0.036,0.031,-9.443
26430,0.056,-0.042,9.835,0.00,0.00,0.00,100.23,-0.002,0.041,-9.431
26440,0.050,-0.037,9.837,0.00,0.00,0.00,100.23,-0.068,0.093,-9.399
26450,0.028,-0.036,9.841,0.00,0.00,0.00,100.23,-0.029,0.078,-9.438
26460,0.052,-0.046,9.842,0.00,0.00,0.00,100.23,0.004,0.105,-9.436
26472,0.041,-0.049,9.847,0.00,0.00,0.00,100.23,-0.044,0.093,-9.416
26482,0.052,-0.020,9.850,0.00,0.00,0.00,100.23,-0.026,0.073,-9.421
26492,0.043,-0.043,9.840,0.00,0.00,0.00,100.23,0.000,0.122,-9.428
26502,0.041,-0.028,9.841,0.00,0.00,0.00,100.23,-0.017,0.083,-9.463
26512,0.047,-0.030,9.853,0.00,0.00,0.00,100.23,0.012,0.098,-9.428
26532,0.049,-0.038,9.855,0.00,0.00,0.00,100.23,-0.017,0.063,-9.460
26542,0.037,-0.029,9.827,0.00,0.00,0.00,100.23,-0.034,0.061,-9.436
26552,0.041,-0.045,9.847,0.00,0.00,0.00,100.23,-0.053,0.098,-9.414
26562,0.053,-0.044,9.839,0.00,0.00,0.00,100.23,-0.063,0.051,-9.428
26573,0.047,-0.043,9.841,0.00,0.00,0.00,100.23,-0.007,0.075,-9.419
26583,0.047,-0.053,9.842,0.00,0.00,0.00,100.23,-0.022,0.083,-9.451
26593,0.041,-0.031,9.853,0.00,0.00,0.00,100.23,-0.039,0.115,-9.436
26603,0.049,-0.019,9.836,0.00,0.00,0.00,100.23,-0.036,0.090,-9.443
26613,0.041,-0.043,9.833,0.00,0.00,0.00,100.23,0.000,0.044,-9.389
26623,0.032,-0.046,9.834,0.00,0.00,0.00,100.23,-0.034,0.031,-9.421
26633,0.043,-0.035,9.852,0.00,0.00,0.00,100.23,-0.049,0.029,-9.406
26643,0.038,-0.036,9.840,0.00,0.00,0.00,100.23,-0.058,0.100,-9.409
26653,0.046,-0.036,9.841,0.00,0.00,0.00,100.23,-0.009,0.088,-9.436
26663,0.052,-0.051,9.847,0.00,0.00,0.00,100.23,-0.063,0.127,-9.424
26676,0.032,-0.039,9.836,0.00,0.00,0.00,100.23,-0.041,0.080,-9.428
26686,0.049,-0.041,9.842,0.00,0.00,0.00,100.23,-0.009,0.063,-9.460
26696,0.068,-0.047,9.851,0.00,0.00,0.00,100.23,-0.049,0.095,-9.399
26706,0.057,-0.053,9.844,0.00,0.00,0.00,100.23,-0.024,0.046,-9.406
26716,0.050,-0.048,9.838,0.00,0.00,0.00,100.23,-0.036,0.132,-9.416
26726,0.048,-0.043,9.853,0.00,0.00,0.00,100.23,-0.046,0.083,-9.463
26746,0.050,-0.031,9.851,0.00,0.00,0.00,100.23,-0.014,0.098,-9.431
26756,0.037,-0.044,9.856,0.00,0.00,0.00,100.23,-0.019,0.066,-9.426
26766,0.037,-0.026,9.837,0.00,0.00,0.00,100.23,-0.024,0.100,-9.419
26776,0.045,-0.029,9.825,0.00,0.00,0.00,100.23,-0.017,0.095,-9.441
26786,0.035,-0.045,9.850,0.00,0.00,0.00,100.23,-0.024,0.071,-9.448
26796,0.038,-0.052,9.842,0.00,0.00,0.00,100.23,-0.024,0.115,-9.421
26806,0.041,-0.046,9.847,0.00,0.00,0.00,100.23,-0.002,0.083,-9.416
26816,0.043,-0.059,9.848,0.00,0.00,0.00,100.23,-0.014,0.061,-9.428
26826,0.057,-0.046,9.844,0.00,0.00,0.00,100.23,-0.022,0.075,-9.485
26836,0.034,-0.035,9.855,0.00,0.00,0.00,100.23,-0.002,0.068,-9.438
26846,0.044,-0.038,9.837,0.00,0.00,0.00,100.23,0.002,0.090,-9.451
26856,0.040,-0.032,9.849,0.00,0.00,0.00,100.23,-0.024,0.066,-9.448
26866,0.032,-0.035,9.847,0.00,0.00,0.00,100.23,-0.019,0.100,-9.455
26877,0.026,-0.038,9.841,0.00,0.00,0.00,100.23,-0.019,0.129,-9.411
26887,0.051,-0.040,9.848,0.00,0.00,0.00,100.23,-0.039,0.088,-9.428
26897,0.045,-0.034,9.844,0.00,0.00,0.00,100.23,-0.044,0.066,-9.370
26907,0.051,-0.027,9.848,0.00,0.00,0.00,100.23,-0.049,0.093,-9.424
26917,0.056,-0.041,9.860,0.00,0.00,0.00,100.23,-0.012,0.090,-9.446
26927,0.059,-0.045,9.860,0.00,0.00,0.00,100.23,-0.036,0.095,-9.443
26937,0.052,-0.031,9.850,0.00,0.00,0.00,100.23,0.009,0.071,-9.458
26957,0.037,-0.041,9.845,0.00,0.00,0.00,100.23,-0.017,0.056,-9.426
26967,0.031,-0.045,9.842,0.00,0.00,0.00,100.23,-0.034,0.073,-9.433
26978,0.044,-0.045,9.853,0.00,0.00,0.00,100.22,-0.044,0.073,-9.458
26988,0.047,-0.047,9.846,0.00,0.00,0.00,100.22,-0.022,0.049,-9.416
26998,0.023,-0.037,9.827,0.00,0.00,0.00,100.22,-0.014,0.080,-9.411
27008,0.036,-0.030,9.853,0.00,0.00,0.00,100.22,-0.014,0.112,-9.404
27018,0.048,-0.029,9.860,0.00,0.00,0.00,100.22,-0.046,0.039,-9.453
27028,0.050,-0.033,9.848,0.00,0.00,0.00,100.22,-0.066,0.053,-9.438
27038,0.057,-0.046,9.838,0.00,0.00,0.00,100.22,-0.024,0.083,-9.389
27048,0.059,-0.045,9.854,0.00,0.00,0.00,100.22,-0.036,0.075,-9.441
27058,0.049,-0.050,9.882,0.00,0.00,0.00,100.22,-0.031,0.095,-9.419
27068,0.046,-0.055,9.821,0.00,0.00,0.00,100.22,0.031,0.053,-9.428
27080,0.043,-0.050,9.832,0.00,0.00,0.00,100.22,-0.039,0.075,-9.433
27090,0.038,-0.043,9.826,0.00,0.00,0.00,100.22,-0.009,0.085,-9.399
27100,0.038,-0.050,9.821,0.00,0.00,0.00,100.22,0.041,0.053,-9.389
27110,0.064,-0.051,9.845,0.00,0.00,0.00,100.22,0.019,0.098,-9.409
27120,0.065,-0.046,9.849,0.00,0.00,0.00,100.22,0.009,0.063,-9.426
27130,0.046,-0.018,9.867,0.00,0.00,0.00,100.22,-0.053,0.080,-9.448
27140,0.047,-0.028,9.835,0.00,0.00,0.00,100.22,-0.004,0.066,-9.436
27150,0.040,-0.016,9.834,0.00,0.00,0.00,100.22,-0.029,0.071,-9.436
27170,0.038,-0.038,9.847,0.00,0.00,0.00,100.22,-0.024,0.073,-9.414
27181,0.049,-0.058,9.859,0.00,0.00,0.00,100.22,-0.026,0.058,-9.470
27191,0.073,-0.067,9.857,0.00,0.00,0.00,100.22,0.034,0.090,-9.455
27201,0.074,-0.058,9.833,0.00,0.00,0.00,100.22,0.046,0.056,-9.384
27211,0.083,-0.044,9.840,0.00,0.00,0.00,100.22,-0.031,0.046,-9.409
27221,0.074,-0.056,9.842,0.00,0.00,0.00,100.22,-0.004,0.049,-9.387
27231,0.067,-0.033,9.845,0.00,0.00,0.00,100.22,-0.051,0.058,-9.414
27241,0.039,-0.015,9.849,0.00,0.00,0.00,100.22,-0.026,0.066,-9.455
27251,0.034,-0.029,9.839,0.00,0.00,0.00,100.22,-0.044,0.061,-9.433
27261,0.028,-0.026,9.842,0.00,0.00,0.00,100.22,-0.036,0.117,-9.402
27271,0.030,-0.040,9.838,0.00,0.00,0.00,100.22,-0.053,0.098,-9.446
27282,0.047,-0.056,9.844,0.00,0.00,0.00,100.22,-0.007,0.098,-9.451
27292,0.034,-0.064,9.857,0.00,0.00,0.00,100.22,-0.012,0.085,-9.409
27302,0.050,-0.056,9.836,0.00,0.00,0.00,100.22,-0.024,0.122,-9.438
27312,0.052,-0.052,9.841,0.00,0.00,0.00,100.22,-0.039,0.066,-9.406
27322,0.043,-0.064,9.824,0.00,0.00,0.00,100.22,-0.022,0.036,-9.465
27332,0.054,-0.043,9.839,0.00,0.00,0.00,100.22,-0.073,0.063,-9.431
27342,0.060,-0.036,9.862,0.00,0.00,0.00,100.22,-0.041,0.056,-9.451
27352,0.065,-0.049,9.859,0.00,0.00,0.00,100.22,-0.002,0.063,-9.451
27362,0.062,-0.044,9.842,0.00,0.00,0.00,100.22,-0.049,0.053,-9.424
27383,0.046,-0.037,9.844,0.00,0.00,0.00,100.22,-0.039,0.063,-9.468
27393,0.035,-0.049,9.848,0.00,0.00,0.00,100.22,-0.044,0.044,-9.436
27403,0.050,-0.046,9.832,0.00,0.00,0.00,100.22,-0.007,0.058,-9.443
27413,0.052,-0.050,9.839,0.00,0.00,0.00,100.22,-0.012,0.090,-9.465
27423,0.029,-0.056,9.838,0.00,0.00,0.00,100.22,-0.022,0.083,-9.424
27433,0.052,-0.036,9.821,0.00,0.00,0.00,100.22,-0.012,0.075,-9.441
27443,0.065,-0.040,9.850,0.00,0.00,0.00,100.22,-0.017,0.088,-9.409
27453,0.052,-0.048,9.851,0.00,0.00,0.00,100.22,-0.029,0.107,-9.411
27463,0.050,-0.026,9.853,0.00,0.00,0.00,100.22,-0.051,0.090,-9.443
27473,0.040,-0.032,9.852,0.00,0.00,0.00,100.22,-0.002,0.122,-9.448
27484,0.046,-0.050,9.844,0.00,0.00,0.00,100.22,-0.014,0.095,-9.394
27494,0.037,-0.037,9.850,0.00,0.00,0.00,100.22,-0.017,0.073,-9.453
27504,0.043,-0.065,9.823,0.00,0.00,0.00,100.22,-0.041,0.085,-9.379
27514,0.045,-0.051,9.853,0.00,0.00,0.00,100.22,-0.056,0.088,-9.441
27524,0.044,-0.053,9.858,0.00,0.00,0.00,100.22,-0.012,0.107,-9.406
27534,0.041,-0.058,9.854,0.00,0.00,0.00,100.22,-0.009,0.071,-9.419
27544,0.057,-0.038,9.843,0.00,0.00,0.00,100.22,-0.007,0.066,-9.441
27554,0.050,-0.042,9.851,0.00,0.00,0.00,100.22,-0.024,0.080,-9.419
27564,0.064,-0.031,9.847,0.00,0.00,0.00,100.22,-0.017,0.083,-9.441
27586,0.077,-0.050,9.854,0.00,0.00,0.00,100.22,-0.036,0.085,-9.431
27596,0.064,-0.048,9.866,0.00,0.00,0.00,100.22,-0.019,0.066,-9.416
27606,0.054,-0.037,9.855,0.00,0.00,0.00,100.22,0.026,0.098,-9.458
27616,0.037,-0.052,9.845,0.00,0.00,0.00,100.22,-0.024,0.075,-9.416
27626,0.042,-0.047,9.850,0.00,0.00,0.00,100.22,0.009,0.095,-9.416
27636,0.046,-0.041,9.852,0.00,0.00,0.00,100.22,-0.034,0.098,-9.424
27646,0.028,-0.043,9.841,0.00,0.00,0.00,100.22,-0.036,0.098,-9.428
27656,0.044,-0.040,9.838,0.00,0.00,0.00,100.22,-0.019,0.056,-9.443
27666,0.052,-0.037,9.849,0.00,0.00,0.00,100.22,-0.024,0.051,-9.468
27676,0.066,-0.049,9.845,0.00,0.00,0.00,100.22,-0.014,0.066,-9.448
27687,0.059,-0.046,9.833,0.00,0.00,0.00,100.22,-0.039,0.056,-9.453
27697,0.062,-0.040,9.832,0.00,0.00,0.00,100.22,0.007,0.063,-9.409
27707,0.070,-0.046,9.854,0.00,0.00,0.00,100.22,-0.046,0.036,-9.453
27717,0.043,-0.041,9.856,0.00,0.00,0.00,100.22,-0.039,0.066,-9.441
27727,0.051,-0.049,9.845,0.00,0.00,0.00,100.22,-0.012,0.100,-9.455
27737,0.045,-0.050,9.848,0.00,0.00,0.00,100.22,-0.009,0.051,-9.387
27747,0.047,-0.050,9.845,0.00,0.00,0.00,100.22,-0.009,0.100,-9.399
27757,0.015,-0.055,9.854,0.00,0.00,0.00,100.22,-0.014,0.107,-9.426
27767,0.029,-0.044,9.841,0.00,0.00,0.00,100.22,-0.031,0.080,-9.419
27790,0.044,-0.031,9.818,0.00,0.00,0.00,100.22,-0.031,0.063,-9.419
27800,0.059,-0.037,9.854,0.00,0.00,0.00,100.22,-0.036,0.110,-9.438
27810,0.055,-0.041,9.847,0.00,0.00,0.00,100.22,-0.024,0.066,-9.465
27820,0.064,-0.031,9.847,0.00,0.00,0.00,100.22,-0.014,0.078,-9.436
27830,0.057,-0.033,9.861,0.00,0.00,0.00,100.22,-0.031,0.044,-9.455
27840,0.039,-0.045,9.851,0.00,0.00,0.00,100.22,-0.022,0.085,-9.394
27850,0.041,-0.041,9.842,0.00,0.00,0.00,100.22,-0.056,0.061,-9.448
27860,0.041,-0.055,9.842,0.00,0.00,0.00,100.22,-0.004,0.053,-9.402
27870,0.034,-0.045,9.842,0.00,0.00,0.00,100.22,-0.078,0.061,-9.404
27880,0.046,-0.051,9.847,0.00,0.00,0.00,100.22,-0.012,0.112,-9.436
27889,0.061,-0.041,9.850,0.00,0.00,0.00,100.22,-0.061,0.066,-9.411
27899,0.062,-0.035,9.838,0.00,0.00,0.00,100.22,-0.039,0.053,-9.411
27909,0.035,-0.047,9.845,0.00,0.00,0.00,100.22,-0.063,0.053,-9.406
27919,0.042,-0.036,9.862,0.00,0.00,0.00,100.22,-0.039,0.073,-9.402
27929,0.045,-0.025,9.862,0.00,0.00,0.00,100.22,-0.002,0.115,-9.421
27939,0.052,-0.048,9.860,0.00,0.00,0.00,100.22,-0.019,0.056,-9.436
27949,0.049,-0.043,9.850,0.00,0.00,0.00,100.22,-0.036,0.073,-9.473
27959,0.055,-0.051,9.851,0.00,0.00,0.00,100.22,-0.031,0.049,-9.421
27969,0.060,-0.058,9.841,0.00,0.00,0.00,100.22,-0.044,0.073,-9.451
27991,0.033,-0.047,9.860,0.00,0.00,0.00,100.22,-0.053,0.063,-9.389
28001,0.034,-0.044,9.852,0.00,0.00,0.00,100.22,-0.004,0.090,-9.433
28011,0.055,-0.025,9.849,0.00,0.00,0.00,100.22,-0.026,0.036,-9.428
28021,0.046,-0.043,9.839,0.00,0.00,0.00,100.22,-0.019,0.090,-9.426
28031,0.035,-0.043,9.836,0.00,0.00,0.00,100.22,-0.039,0.098,-9.436
28041,0.053,-0.043,9.849,0.00,0.00,0.00,100.22,-0.004,0.080,-9.441
28051,0.059,-0.043,9.863,0.00,0.00,0.00,100.22,-0.051,0.073,-9.438
28061,0.047,-0.036,9.844,0.00,0.00,0.00,100.22,-0.039,0.046,-9.455
28071,0.047,-0.049,9.829,0.00,0.00,0.00,100.22,-0.036,0.063,-9.406
28081,0.056,-0.034,9.854,0.00,0.00,0.00,100.22,-0.044,0.071,-9.419
28092,0.050,-0.041,9.860,0.00,0.00,0.00,100.22,-0.044,0.102,-9.441
28102,0.052,-0.044,9.837,0.00,0.00,0.00,100.22,-0.022,0.056,-9.419
28112,0.028,-0.055,9.855,0.00,0.00,0.00,100.22,-0.039,0.085,-9.458
28122,0.040,-0.063,9.845,0.00,0.00,0.00,100.22,-0.041,0.075,-9.365
28132,0.032,-0.021,9.839,0.00,0.00,0.00,100.22,-0.019,-0.002,-9.436
28142,0.036,-0.034,9.845,0.00,0.00,0.00,100.22,-0.007,0.090,-9.411
28152,0.040,-0.035,9.858,0.00,0.00,0.00,100.22,-0.024,0.053,-9.441
28162,0.049,-0.040,9.849,0.00,0.00,0.00,100.22,-0.029,0.102,-9.431
28172,0.047,-0.052,9.841,0.00,0.00,0.00,100.22,-0.041,0.085,-9.426
28193,0.042,-0.061,9.840,0.00,0.00,0.00,100.22,-0.026,0.036,-9.394
28203,0.053,-0.051,9.839,0.00,0.00,0.00,100.22,-0.044,0.044,-9.419
28213,0.054,-0.047,9.871,0.00,0.00,0.00,100.22,-0.002,0.083,-9.402
28223,0.037,-0.041,9.864,0.00,0.00,0.00,100.22,-0.031,0.073,-9.426
28233,0.046,-0.044,9.847,0.00,0.00,0.00,100.22,-0.061,0.142,-9.453
28243,0.046,-0.036,9.847,0.00,0.00,0.00,100.22,-0.024,0.061,-9.426
28253,0.050,-0.040,9.848,0.00,0.00,0.00,100.22,-0.031,0.088,-9.455
28263,0.041,-0.041,9.852,0.00,0.00,0.00,100.22,-0.061,0.093,-9.428
28273,0.043,-0.037,9.851,0.00,0.00,0.00,100.22,-0.014,0.071,-9.411
28283,0.051,-0.041,9.847,0.00,0.00,0.00,100.22,0.000,0.085,-9.382
28295,0.048,-0.053,9.847,0.00,0.00,0.00,100.22,-0.036,0.090,-9.419
28305,0.053,-0.043,9.848,0.00,0.00,0.00,100.22,-0.026,0.066,-9.453
28315,0.049,-0.055,9.841,0.00,0.00,0.00,100.22,-0.007,0.100,-9.431
28325,0.052,-0.038,9.854,0.00,0.00,0.00,100.22,-0.022,0.075,-9.448
28335,0.052,-0.041,9.850,0.00,0.00,0.00,100.22,-0.039,0.090,-9.375
28345,0.047,-0.045,9.844,0.00,0.00,0.00,100.22,-0.012,0.041,-9.458
28355,0.038,-0.021,9.848,0.00,0.00,0.00,100.22,-0.036,0.063,-9.436
28365,0.049,-0.032,9.847,0.00,0.00,0.00,100.22,-0.012,0.039,-9.451
28375,0.046,-0.035,9.836,0.00,0.00,0.00,100.22,-0.026,0.083,-9.438
28396,0.042,-0.040,9.850,0.00,0.00,0.00,100.22,0.012,0.085,-9.490
28406,0.046,-0.050,9.851,0.00,0.00,0.00,100.22,-0.024,0.063,-9.416
28416,0.061,-0.050,9.854,0.00,0.00,0.00,100.22,-0.022,0.120,-9.451
28426,0.052,-0.045,9.838,0.00,0.00,0.00,100.22,-0.034,0.046,-9.421
28436,0.044,-0.027,9.845,0.00,0.00,0.00,100.22,-0.019,0.075,-9.438
28446,0.058,-0.055,9.845,0.00,0.00,0.00,100.22,-0.051,0.071,-9.416
28456,0.047,-0.037,9.850,0.00,0.00,0.00,100.22,-0.022,0.117,-9.428
28466,0.045,-0.043,9.860,0.00,0.00,0.00,100.22,-0.004,0.107,-9.460
28476,0.056,-0.058,9.846,0.00,0.00,0.00,100.22,-0.024,0.093,-9.404
28486,0.049,-0.044,9.845,0.00,0.00,0.00,100.22,-0.012,0.071,-9.448
28497,0.038,-0.043,9.847,0.00,0.00,0.00,100.22,-0.031,0.080,-9.397
28507,0.040,-0.049,9.853,0.00,0.00,0.00,100.22,-0.019,0.078,-9.438
28517,0.050,-0.049,9.845,0.00,0.00,0.00,100.22,-0.007,0.075,-9.409
28527,0.053,-0.043,9.846,0.00,0.00,0.00,100.22,-0.029,0.058,-9.411
28537,0.050,-0.037,9.849,0.00,0.00,0.00,100.22,0.012,0.068,-9.419
28547,0.057,-0.038,9.851,0.00,0.00,0.00,100.22,-0.014,0.098,-9.411
28557,0.061,-0.031,9.857,0.00,0.00,0.00,100.22,-0.024,0.053,-9.404
28567,0.056,-0.044,9.855,0.00,0.00,0.00,100.22,0.000,0.039,-9.433
28577,0.058,-0.031,9.843,0.00,0.00,0.00,100.22,-0.051,0.058,-9.441
28599,0.068,-0.037,9.838,0.00,0.00,0.00,100.22,-0.068,0.075,-9.394
28609,0.060,-0.060,9.844,0.00,0.00,0.00,100.22,-0.044,0.093,-9.421
28619,0.044,-0.051,9.863,0.00,0.00,0.00,100.22,-0.029,0.117,-9.468
28629,0.034,-0.046,9.856,0.00,0.00,0.00,100.22,-0.014,0.019,-9.409
28639,0.040,-0.043,9.848,0.00,0.00,0.00,100.22,0.019,0.105,-9.411
28649,0.043,-0.047,9.852,0.00,0.00,0.00,100.22,0.022,0.100,-9.431
28659,0.053,-0.049,9.850,0.00,0.00,0.00,100.22,0.007,0.105,-9.402
28669,0.049,-0.039,9.842,0.00,0.00,0.00,100.22,0.002,0.078,-9.441
28679,0.062,-0.041,9.844,0.00,0.00,0.00,100.22,-0.039,0.088,-9.419
28689,0.051,-0.041,9.854,0.00,0.00,0.00,100.22,-0.041,0.078,-9.433
28700,0.054,-0.038,9.857,0.00,0.00,0.00,100.22,-0.004,0.075,-9.428
28710,0.049,-0.049,9.842,0.00,0.00,0.00,100.22,-0.002,0.073,-9.424
28720,0.037,-0.049,9.842,0.00,0.00,0.00,100.22,0.009,0.073,-9.453
28730,0.041,-0.041,9.851,0.00,0.00,0.00,100.22,-0.007,0.090,-9.402
28740,0.047,-0.036,9.856,0.00,0.00,0.00,100.22,-0.002,0.066,-9.443
28750,0.045,-0.031,9.847,0.00,0.00,0.00,100.22,-0.002,0.115,-9.446
28760,0.047,-0.037,9.839,0.00,0.00,0.00,100.22,0.017,0.090,-9.355
28770,0.030,-0.052,9.850,0.00,0.00,0.00,100.22,0.012,0.039,-9.428
28780,0.041,-0.053,9.845,0.00,0.00,0.00,100.22,-0.061,0.088,-9.409
28790,0.065,-0.043,9.854,0.00,0.00,0.00,100.22,-0.073,0.068,-9.424
28812,0.053,-0.040,9.868,0.00,0.00,0.00,100.22,-0.041,0.078,-9.448
28822,0.067,-0.034,9.862,0.00,0.00,0.00,100.22,0.009,0.093,-9.416
28832,0.047,-0.046,9.844,0.00,0.00,0.00,100.22,-0.022,0.080,-9.389
28842,0.033,-0.046,9.851,0.00,0.00,0.00,100.22,-0.034,0.046,-9.399
28852,0.049,-0.035,9.849,0.00,0.00,0.00,100.22,-0.019,0.073,-9.433
28862,0.037,-0.042,9.844,0.00,0.00,0.00,100.22,-0.044,0.049,-9.451
28872,0.040,-0.048,9.852,0.00,0.00,0.00,100.22,-0.034,0.115,-9.458
28882,0.047,-0.032,9.848,0.00,0.00,0.00,100.22,-0.051,0.083,-9.421
28892,0.053,-0.043,9.842,0.00,0.00,0.00,100.22,-0.034,0.078,-9.436
28902,0.053,-0.050,9.847,0.00,0.00,0.00,100.22,-0.044,0.066,-9.431
28912,0.052,-0.052,9.853,0.00,0.00,0.00,100.22,-0.056,0.044,-9.404
28922,0.061,-0.048,9.847,0.00,0.00,0.00,100.22,-0.036,0.053,-9.411
28932,0.062,-0.038,9.840,0.00,0.00,0.00,100.22,-0.036,0.066,-9.416
28942,0.056,-0.048,9.845,0.00,0.00,0.00,100.22,-0.031,0.080,-9.431
28952,0.047,-0.040,9.842,0.00,0.00,0.00,100.22,0.012,0.053,-9.411
28962,0.044,-0.053,9.848,0.00,0.00,0.00,100.22,-0.017,0.046,-9.414
28972,0.051,-0.046,9.838,0.00,0.00,0.00,100.22,-0.031,0.066,-9.424
28982,0.049,-0.041,9.846,0.00,0.00,0.00,100.22,-0.061,0.056,-9.431
28992,0.053,-0.050,9.857,0.00,0.00,0.00,100.22,-0.058,0.083,-9.478
29004,0.048,-0.041,9.852,0.00,0.00,0.00,100.22,-0.058,0.073,-9.478
29024,0.044,-0.035,9.853,0.00,0.00,0.00,100.22,-0.039,0.102,-9.446
29034,0.059,-0.035,9.858,0.00,0.00,0.00,100.22,-0.051,0.112,-9.436
29044,0.048,-0.029,9.849,0.00,0.00,0.00,100.22,-0.044,0.053,-9.478
29054,0.045,-0.047,9.848,0.00,0.00,0.00,100.22,-0.071,0.112,-9.438
29064,0.041,-0.036,9.858,0.00,0.00,0.00,100.22,-0.002,0.073,-9.424
29074,0.061,-0.038,9.860,0.00,0.00,0.00,100.22,-0.031,0.051,-9.478
29084,0.049,-0.035,9.843,0.00,0.00,0.00,100.22,-0.041,0.088,-9.421
29094,0.050,-0.049,9.824,0.00,0.00,0.00,100.22,-0.004,0.075,-9.470
29105,0.047,-0.046,9.836,0.00,0.00,0.00,100.22,0.014,0.102,-9.428
29115,0.053,-0.047,9.839,0.00,0.00,0.00,100.22,-0.004,0.120,-9.419
29125,0.038,-0.041,9.843,0.00,0.00,0.00,100.22,-0.046,0.090,-9.419
29135,0.049,-0.027,9.857,0.00,0.00,0.00,100.22,-0.022,0.063,-9.455
29145,0.047,-0.032,9.850,0.00,0.00,0.00,100.22,-0.014,0.075,-9.480
29155,0.043,-0.050,9.852,0.00,0.00,0.00,100.22,-0.026,0.075,-9.453
29165,0.056,-0.049,9.847,0.00,0.00,0.00,100.22,-0.024,0.102,-9.463
29175,0.061,-0.043,9.859,0.00,0.00,0.00,100.22,-0.014,0.036,-9.455
29185,0.041,-0.044,9.847,0.00,0.00,0.00,100.22,-0.049,0.049,-9.446
29195,0.046,-0.044,9.850,0.00,0.00,0.00,100.22,-0.029,0.071,-9.451
29206,0.038,-0.047,9.843,0.00,0.00,0.00,100.22,-0.034,0.061,-9.409
29216,0.046,-0.032,9.840,0.00,0.00,0.00,100.22,0.014,0.034,-9.451
29236,0.041,-0.041,9.854,0.00,0.00,0.00,100.22,-0.056,0.026,-9.428
29246,0.051,-0.048,9.851,0.00,0.00,0.00,100.22,-0.039,0.093,-9.382
29256,0.048,-0.046,9.829,0.00,0.00,0.00,100.22,-0.039,0.066,-9.438
29266,0.041,-0.035,9.837,0.00,0.00,0.00,100.22,-0.004,0.061,-9.485
29276,0.051,-0.043,9.839,0.00,0.00,0.00,100.22,0.007,0.063,-9.455
29286,0.051,-0.044,9.844,0.00,0.00,0.00,100.22,-0.007,0.058,-9.419
29296,0.053,-0.044,9.848,0.00,0.00,0.00,100.22,-0.036,0.078,-9.441
29307,0.048,-0.048,9.844,0.00,0.00,0.00,100.22,-0.004,0.068,-9.465
29317,0.041,-0.044,9.844,0.00,0.00,0.00,100.22,-0.049,0.095,-9.470
29327,0.045,-0.029,9.840,0.00,0.00,0.00,100.22,0.000,0.080,-9.438
29337,0.055,-0.028,9.858,0.00,0.00,0.00,100.22,-0.022,0.100,-9.436
29347,0.034,-0.040,9.861,0.00,0.00,0.00,100.22,0.000,0.125,-9.428
29357,0.043,-0.044,9.848,0.00,0.00,0.00,100.22,-0.004,0.085,-9.460
29367,0.050,-0.046,9.848,0.00,0.00,0.00,100.22,-0.012,0.098,-9.377
29377,0.050,-0.026,9.828,0.00,0.00,0.00,100.22,-0.053,0.110,-9.448
29387,0.046,-0.035,9.855,0.00,0.00,0.00,100.22,-0.066,0.110,-9.431
29397,0.061,-0.043,9.848,0.00,0.00,0.00,100.22,-0.046,0.068,-9.458
29409,0.050,-0.045,9.854,0.00,0.00,0.00,100.22,-0.012,0.056,-9.421
29419,0.064,-0.049,9.850,0.00,0.00,0.00,100.22,-0.019,0.056,-9.448
29429,0.056,-0.047,9.869,0.00,0.00,0.00,100.22,0.004,0.105,-9.402
29449,0.043,-0.041,9.836,0.00,0.00,0.00,100.22,-0.073,0.049,-9.438
29459,0.044,-0.048,9.850,0.00,0.00,0.00,100.22,-0.004,0.080,-9.404
29469,0.034,-0.060,9.848,0.00,0.00,0.00,100.22,-0.009,0.102,-9.419
29479,0.028,-0.044,9.844,0.00,0.00,0.00,100.22,-0.046,0.134,-9.475
29489,0.038,-0.035,9.849,0.00,0.00,0.00,100.22,-0.022,0.075,-9.428
29499,0.029,-0.050,9.847,0.00,0.00,0.00,100.22,-0.014,0.056,-9.433
29510,0.039,-0.055,9.857,0.00,0.00,0.00,100.22,-0.034,0.073,-9.448
29520,0.056,-0.058,9.845,0.00,0.00,0.00,100.22,-0.012,0.090,-9.392
29530,0.054,-0.047,9.838,0.00,0.00,0.00,100.22,-0.058,0.044,-9.487
29540,0.035,-0.042,9.848,0.00,0.00,0.00,100.22,0.000,0.068,-9.428
29550,0.050,-0.047,9.856,0.00,0.00,0.00,100.22,-0.017,0.053,-9.455
29560,0.067,-0.038,9.845,0.00,0.00,0.00,100.22,-0.029,0.056,-9.446
29570,0.050,-0.058,9.837,0.00,0.00,0.00,100.22,-0.004,0.053,-9.453
29580,0.042,-0.054,9.842,0.00,0.00,0.00,100.22,-0.007,0.068,-9.433
29590,0.053,-0.039,9.836,0.00,0.00,0.00,100.22,-0.017,0.093,-9.438
29600,0.051,-0.034,9.845,0.00,0.00,0.00,100.22,-0.044,0.073,-9.409
29611,0.053,-0.039,9.844,0.00,0.00,0.00,100.22,-0.066,0.105,-9.446
29621,0.047,-0.035,9.852,0.00,0.00,0.00,100.22,-0.007,0.085,-9.419
29631,0.049,-0.035,9.842,0.00,0.00,0.00,100.22,-0.046,0.044,-9.424
29641,0.049,-0.035,9.853,0.00,0.00,0.00,100.22,0.004,0.051,-9.453
29661,0.044,-0.046,9.841,0.00,0.00,0.00,100.22,-0.017,0.083,-9.424
29671,0.045,-0.034,9.842,0.00,0.00,0.00,100.22,0.000,0.044,-9.453
29681,0.048,-0.039,9.850,0.00,0.00,0.00,100.22,-0.024,0.063,-9.475
29691,0.051,-0.043,9.856,0.00,0.00,0.00,100.22,-0.009,0.075,-9.409
29701,0.049,-0.047,9.850,0.00,0.00,0.00,100.22,-0.014,0.075,-9.416
29712,0.041,-0.056,9.845,0.00,0.00,0.00,100.22,-0.014,0.095,-9.406
29722,0.055,-0.055,9.866,0.00,0.00,0.00,100.22,-0.051,0.090,-9.409
29732,0.053,-0.044,9.844,0.00,0.00,0.00,100.22,-0.049,0.083,-9.424
29742,0.043,-0.064,9.849,0.00,0.00,0.00,100.22,-0.046,0.053,-9.475
29752,0.068,-0.042,9.839,0.00,0.00,0.00,100.22,-0.029,0.066,-9.387
29762,0.050,-0.050,9.851,0.00,0.00,0.00,100.22,0.007,0.066,-9.448
29772,0.037,-0.050,9.833,0.00,0.00,0.00,100.22,-0.012,0.061,-9.468
29782,0.052,-0.053,9.854,0.00,0.00,0.00,100.22,-0.024,0.093,-9.411
29792,0.046,-0.042,9.849,0.00,0.00,0.00,100.22,-0.002,0.075,-9.470
29802,0.049,-0.047,9.842,0.00,0.00,0.00,100.22,-0.039,0.120,-9.389
29816,0.054,-0.052,9.853,0.00,0.00,0.00,100.22,-0.046,0.073,-9.426
29826,0.058,-0.037,9.840,0.00,0.00,0.00,100.22,-0.063,0.068,-9.411
29836,0.040,-0.056,9.850,0.00,0.00,0.00,100.22,-0.056,0.098,-9.402
29846,0.052,-0.049,9.848,0.00,0.00,0.00,100.22,-0.026,0.105,-9.419
29866,0.051,-0.041,9.829,0.00,0.00,0.00,100.22,-0.044,0.090,-9.441
29876,0.050,-0.044,9.848,0.00,0.00,0.00,100.22,0.002,0.046,-9.421
29886,0.046,-0.045,9.863,0.00,0.00,0.00,100.22,-0.004,0.049,-9.441
29896,0.057,-0.039,9.842,0.00,0.00,0.00,100.22,-0.017,0.090,-9.446
29906,0.048,-0.046,9.843,0.00,0.00,0.00,100.22,-0.017,0.083,-9.451
29916,0.060,-0.045,9.833,0.00,0.00,0.00,100.22,-0.029,0.073,-9.433
29926,0.049,-0.038,9.837,0.00,0.00,0.00,100.22,-0.004,0.071,-9.478
29936,0.044,-0.044,9.854,0.00,0.00,0.00,100.22,-0.009,0.073,-9.433
29946,0.060,-0.057,9.839,0.00,0.00,0.00,100.22,-0.019,0.078,-9.451
29956,0.064,-0.038,9.847,0.00,0.00,0.00,100.22,-0.036,0.093,-9.438
29966,0.053,-0.038,9.850,0.00,0.00,0.00,100.22,0.007,0.061,-9.406
29976,0.043,-0.044,9.844,0.00,0.00,0.00,100.22,-0.051,0.063,-9.424
29986,0.035,-0.049,9.853,0.00,0.00,0.00,100.22,0.017,0.095,-9.406
29996,0.055,-0.053,9.836,0.00,0.00,0.00,100.22,-0.007,0.098,-9.448
30006,0.053,-0.047,9.837,0.00,0.00,0.00,100.22,-0.049,0.083,-9.392
30016,0.047,-0.041,9.855,0.00,0.00,0.00,100.22,-0.046,0.085,-9.448
30026,0.050,-0.037,9.851,0.00,0.00,0.00,100.22,-0.046,0.093,-9.438
30036,0.058,-0.039,9.837,0.00,0.00,0.00,100.22,-0.009,0.075,-9.443
30046,0.050,-0.031,9.850,0.00,0.00,0.00,100.22,-0.007,0.053,-9.414
30056,0.061,-0.029,9.857,0.00,0.00,0.00,100.22,-0.022,0.075,-9.443
30076,0.044,-0.061,9.840,0.00,0.00,0.00,100.22,-0.022,0.098,-9.387
30086,0.050,-0.043,9.850,0.00,0.00,0.00,100.22,0.004,0.061,-9.468
30096,0.040,-0.055,9.845,0.00,0.00,0.00,100.22,-0.026,0.056,-9.446
30106,0.043,-0.038,9.838,0.00,0.00,0.00,100.22,-0.019,0.046,-9.458
30118,0.037,-0.035,9.845,0.00,0.00,0.00,100.22,-0.031,0.063,-9.436
30128,0.049,-0.041,9.856,0.00,0.00,0.00,100.22,-0.022,0.129,-9.436
30138,0.053,-0.051,9.856,0.00,0.00,0.00,100.22,-0.041,0.056,-9.426
30148,0.048,-0.042,9.845,0.00,0.00,0.00,100.22,-0.073,0.105,-9.392
30158,0.063,-0.041,9.839,0.00,0.00,0.00,100.22,-0.041,0.107,-9.428
30168,0.046,-0.030,9.849,0.00,0.00,0.00,100.22,-0.019,0.085,-9.397
30178,0.046,-0.029,9.852,0.00,0.00,0.00,100.22,-0.004,0.051,-9.416
30188,0.045,-0.045,9.848,0.00,0.00,0.00,100.22,-0.009,0.078,-9.433
30198,0.050,-0.050,9.839,0.00,0.00,0.00,100.22,-0.002,0.063,-9.414
30208,0.052,-0.045,9.833,0.00,0.00,0.00,100.22,-0.014,0.105,-9.409
30219,0.055,-0.044,9.845,0.00,0.00,0.00,100.22,0.000,0.110,-9.438
30229,0.055,-0.041,9.854,0.00,0.00,0.00,100.22,-0.024,0.129,-9.414
30239,0.042,-0.043,9.851,0.00,0.00,0.00,100.22,-0.049,0.066,-9.409
30249,0.054,-0.044,9.848,0.00,0.00,0.00,100.22,-0.012,0.132,-9.399
30259,0.044,-0.041,9.839,0.00,0.00,0.00,100.22,0.017,0.100,-9.463
30269,0.060,-0.044,9.844,0.00,0.00,0.00,100.22,-0.019,0.041,-9.441
30289,0.049,-0.053,9.834,0.00,0.00,0.00,100.22,-0.041,0.017,-9.460
30299,0.049,-0.031,9.848,0.00,0.00,0.00,100.22,-0.004,0.041,-9.441
30309,0.049,-0.029,9.837,0.00,0.00,0.00,100.22,-0.053,0.080,-9.438
30320,0.054,-0.054,9.841,0.00,0.00,0.00,100.22,-0.049,0.078,-9.421
30330,0.050,-0.049,9.854,0.00,0.00,0.00,100.22,-0.061,0.026,-9.414
30340,0.045,-0.037,9.847,0.00,0.00,0.00,100.22,-0.012,0.044,-9.433
30350,0.056,-0.033,9.839,0.00,0.00,0.00,100.22,-0.026,0.088,-9.424
30360,0.043,-0.038,9.850,0.00,0.00,0.00,100.22,-0.066,0.095,-9.428
30370,0.050,-0.037,9.853,0.00,0.00,0.00,100.22,-0.053,0.110,-9.406
30380,0.042,-0.050,9.839,0.00,0.00,0.00,100.22,-0.009,0.083,-9.411
30390,0.065,-0.041,9.845,0.00,0.00,0.00,100.22,0.002,0.088,-9.455
30400,0.049,-0.054,9.854,0.00,0.00,0.00,100.22,-0.007,0.071,-9.424
30410,0.033,-0.059,9.852,0.00,0.00,0.00,100.22,-0.056,0.090,-9.433
30421,0.049,-0.044,9.835,0.00,0.00,0.00,100.22,-0.044,0.063,-9.451
30431,0.059,-0.043,9.844,0.00,0.00,0.00,100.22,-0.004,0.075,-9.463
30441,0.058,-0.041,9.866,0.00,0.00,0.00,100.22,-0.031,0.093,-9.436
30451,0.035,-0.044,9.856,0.00,0.00,0.00,100.22,-0.031,0.100,-9.436
30461,0.034,-0.048,9.839,0.00,0.00,0.00,100.22,-0.019,0.088,-9.441
30471,0.041,-0.036,9.841,0.00,0.00,0.00,100.22,-0.024,0.034,-9.426
30481,0.062,-0.033,9.855,0.00,0.00,0.00,100.22,-0.004,0.117,-9.411
30501,0.047,-0.046,9.848,0.00,0.00,0.00,100.22,-0.053,0.071,-9.431
30511,0.037,-0.041,9.850,0.00,0.00,0.00,100.22,-0.022,0.112,-9.448
30523,0.040,-0.040,9.846,0.00,0.00,0.00,100.22,-0.022,0.063,-9.406
30533,0.053,-0.040,9.850,0.00,0.00,0.00,100.22,-0.039,0.073,-9.475
30543,0.049,-0.049,9.833,0.00,0.00,0.00,100.22,-0.007,0.068,-9.421
30553,0.043,-0.049,9.856,0.00,0.00,0.00,100.22,0.014,0.098,-9.424
30563,0.065,-0.046,9.853,0.00,0.00,0.00,100.22,-0.024,0.056,-9.389
30573,0.043,-0.058,9.833,0.00,0.00,0.00,100.22,-0.071,0.056,-9.458
30583,0.031,-0.038,9.845,0.00,0.00,0.00,100.22,-0.073,0.085,-9.431
30593,0.056,-0.040,9.853,0.00,0.00,0.00,100.22,-0.044,0.112,-9.451
30603,0.049,-0.038,9.845,0.00,0.00,0.00,100.22,-0.034,0.051,-9.421
30613,0.043,-0.034,9.844,0.00,0.00,0.00,100.22,-0.051,0.117,-9.448
30624,0.054,-0.040,9.838,0.00,0.00,0.00,100.22,-0.083,0.110,-9.431
30634,0.049,-0.034,9.853,0.00,0.00,0.00,100.22,-0.002,0.083,-9.451
30644,0.050,-0.036,9.853,0.00,0.00,0.00,100.22,0.004,0.071,-9.399
30654,0.044,-0.036,9.836,0.00,0.00,0.00,100.22,-0.019,0.107,-9.451
30664,0.048,-0.053,9.848,0.00,0.00,0.00,100.22,-0.031,0.046,-9.438
30674,0.043,-0.052,9.847,0.00,0.00,0.00,100.22,-0.014,0.120,-9.438
30684,0.058,-0.050,9.848,0.00,0.00,0.00,100.22,0.002,0.090,-9.453
30694,0.044,-0.034,9.860,0.00,0.00,0.00,100.22,0.009,0.056,-9.426
30714,0.052,-0.032,9.853,0.00,0.00,0.00,100.22,-0.044,0.049,-9.411
30726,0.049,-0.044,9.850,0.00,0.00,0.00,100.22,-0.039,0.107,-9.441
30736,0.041,-0.048,9.836,0.00,0.00,0.00,100.22,-0.002,0.056,-9.436
30746,0.056,-0.026,9.851,0.00,0.00,0.00,100.22,-0.041,0.078,-9.411
30756,0.051,-0.043,9.839,0.00,0.00,0.00,100.22,0.002,0.080,-9.409
30766,0.046,-0.060,9.854,0.00,0.00,0.00,100.22,0.009,0.029,-9.389
30776,0.052,-0.047,9.857,0.00,0.00,0.00,100.22,-0.031,0.044,-9.451
30786,0.054,-0.045,9.855,0.00,0.00,0.00,100.22,-0.031,0.093,-9.441
30796,0.055,-0.041,9.855,0.00,0.00,0.00,100.22,-0.012,0.053,-9.463
30806,0.053,-0.043,9.841,0.00,0.00,0.00,100.22,0.004,0.071,-9.451
30816,0.041,-0.038,9.854,0.00,0.00,0.00,100.22,-0.046,0.078,-9.475
30827,0.051,-0.031,9.842,0.00,0.00,0.00,100.22,-0.036,0.112,-9.458
30837,0.046,-0.043,9.863,0.00,0.00,0.00,100.22,-0.049,0.061,-9.446
30847,0.050,-0.054,9.850,0.00,0.00,0.00,100.22,-0.034,0.061,-9.451
30857,0.040,-0.039,9.849,0.00,0.00,0.00,100.22,-0.071,0.134,-9.433
30867,0.037,-0.043,9.850,0.00,0.00,0.00,100.22,-0.041,0.105,-9.433
30877,0.050,-0.047,9.845,0.00,0.00,0.00,100.22,-0.051,0.090,-9.465
30887,0.073,-0.035,9.840,0.00,0.00,0.00,100.22,0.002,0.100,-9.463
30897,0.060,-0.050,9.842,0.00,0.00,0.00,100.22,-0.063,0.036,-9.438
30907,0.047,-0.044,9.859,0.00,0.00,0.00,100.22,-0.036,0.071,-9.478
30928,0.055,-0.036,9.824,0.00,0.00,0.00,100.22,-0.007,0.058,-9.451
30938,0.058,-0.053,9.848,0.00,0.00,0.00,100.22,-0.007,0.117,-9.397
30948,0.055,-0.043,9.856,0.00,0.00,0.00,100.22,-0.041,0.100,-9.411
30958,0.040,-0.025,9.845,0.00,0.00,0.00,100.22,-0.029,0.098,-9.426
30968,0.039,-0.040,9.857,0.00,0.00,0.00,100.22,0.002,0.051,-9.470
30978,0.043,-0.039,9.844,0.00,0.00,0.00,100.22,-0.014,0.110,-9.397
30988,0.060,-0.021,9.835,0.00,0.00,0.00,100.22,-0.019,0.105,-9.424
30998,0.050,-0.028,9.841,0.00,0.00,0.00,100.22,-0.012,0.085,-9.411
31008,0.050,-0.060,9.849,0.00,0.00,0.00,100.22,-0.002,0.049,-9.433
31018,0.051,-0.049,9.847,0.00,0.00,0.00,100.22,-0.088,0.088,-9.475
31030,0.049,-0.034,9.845,0.00,0.00,0.00,100.22,-0.044,0.078,-9.463
31040,0.033,-0.041,9.839,0.00,0.00,0.00,100.22,0.007,0.080,-9.409
31050,0.032,-0.035,9.843,0.00,0.00,0.00,100.22,0.031,0.056,-9.480
31060,0.044,-0.039,9.848,0.00,0.00,0.00,100.22,-0.049,0.078,-9.482
31070,0.060,-0.046,9.852,0.00,0.00,0.00,100.22,-0.031,0.031,-9.409
31080,0.041,-0.052,9.851,0.00,0.00,0.00,100.22,-0.049,0.058,-9.460
31090,0.046,-0.045,9.834,0.00,0.00,0.00,100.22,-0.022,0.063,-9.414
31100,0.044,-0.047,9.852,0.00,0.00,0.00,100.22,-0.034,0.068,-9.451
31110,0.047,-0.035,9.834,0.00,0.00,0.00,100.22,-0.044,0.049,-9.399
31120,0.046,-0.035,9.847,0.00,0.00,0.00,100.22,-0.034,0.049,-9.428
31140,0.055,-0.045,9.851,0.00,0.00,0.00,100.22,-0.031,0.019,-9.446
31150,0.049,-0.030,9.846,0.00,0.00,0.00,100.22,-0.068,0.041,-9.409
31160,0.055,-0.042,9.856,0.00,0.00,0.00,100.22,-0.053,0.049,-9.431
31170,0.056,-0.051,9.854,0.00,0.00,0.00,100.22,-0.049,0.034,-9.448
31180,0.040,-0.050,9.833,0.00,0.00,0.00,100.22,-0.024,0.117,-9.448
31190,0.040,-0.057,9.836,0.00,0.00,0.00,100.22,-0.039,0.061,-9.436
31200,0.056,-0.038,9.851,0.00,0.00,0.00,100.22,-0.022,0.120,-9.490
31210,0.055,-0.032,9.847,0.00,0.00,0.00,100.22,0.017,0.056,-9.426
31220,0.047,-0.047,9.828,0.00,0.00,0.00,100.22,-0.012,0.083,-9.436
31232,0.051,-0.049,9.841,0.00,0.00,0.00,100.22,-0.014,0.098,-9.409
31242,0.043,-0.046,9.835,0.00,0.00,0.00,100.22,0.026,0.078,-9.428
31252,0.032,-0.036,9.853,0.00,0.00,0.00,100.22,-0.058,0.090,-9.424
31262,0.041,-0.043,9.841,0.00,0.00,0.00,100.22,-0.056,0.044,-9.428
31272,0.048,-0.044,9.831,0.00,0.00,0.00,100.22,-0.049,0.088,-9.433
31282,0.035,-0.040,9.845,0.00,0.00,0.00,100.22,-0.031,0.085,-9.426
31292,0.029,-0.049,9.844,0.00,0.00,0.00,100.22,0.000,0.088,-9.433
31302,0.053,-0.034,9.826,0.00,0.00,0.00,100.22,-0.007,0.066,-9.443
31312,0.055,-0.047,9.853,0.00,0.00,0.00,100.22,-0.031,0.110,-9.426
31322,0.055,-0.055,9.859,0.00,0.00,0.00,100.22,-0.007,0.071,-9.433
31333,0.047,-0.031,9.836,0.00,0.00,0.00,100.22,-0.036,0.058,-9.409
31353,0.050,-0.044,9.857,0.00,0.00,0.00,100.22,-0.029,0.078,-9.424
31363,0.062,-0.035,9.847,0.00,0.00,0.00,100.22,-0.034,0.088,-9.436
31373,0.047,-0.055,9.844,0.00,0.00,0.00,100.22,-0.026,0.049,-9.433
31383,0.039,-0.054,9.849,0.00,0.00,0.00,100.22,-0.044,0.093,-9.416
31393,0.058,-0.032,9.850,0.00,0.00,0.00,100.22,0.026,0.061,-9.414
31403,0.061,-0.040,9.851,0.00,0.00,0.00,100.22,-0.058,0.090,-9.424
31413,0.060,-0.037,9.841,0.00,0.00,0.00,100.22,-0.029,0.063,-9.409
31423,0.038,-0.043,9.857,0.00,0.00,0.00,100.22,-0.029,0.122,-9.406
31434,0.053,-0.048,9.841,0.00,0.00,0.00,100.22,0.000,0.090,-9.424
31444,0.044,-0.040,9.848,0.00,0.00,0.00,100.22,-0.036,0.078,-9.426
31454,0.047,-0.046,9.855,0.00,0.00,0.00,100.22,-0.029,0.068,-9.441
31464,0.055,-0.043,9.851,0.00,0.00,0.00,100.22,-0.009,0.090,-9.441
31474,0.040,-0.039,9.832,0.00,0.00,0.00,100.22,-0.002,0.058,-9.453
31484,0.043,-0.038,9.842,0.00,0.00,0.00,100.22,-0.007,0.117,-9.421
31494,0.051,-0.032,9.851,0.00,0.00,0.00,100.22,0.017,0.085,-9.411
31504,0.060,-0.048,9.842,0.00,0.00,0.00,100.22,0.036,0.066,-9.421
31514,0.047,-0.049,9.853,0.00,0.00,0.00,100.22,-0.041,0.068,-9.426
31524,0.047,-0.031,9.850,0.00,0.00,0.00,100.22,-0.017,0.085,-9.438
31535,0.062,-0.044,9.855,0.00,0.00,0.00,100.22,-0.012,0.080,-9.448
31545,0.036,-0.043,9.850,0.00,0.00,0.00,100.22,0.026,0.100,-9.416
31565,0.050,-0.057,9.853,0.00,0.00,0.00,100.22,-0.053,0.102,-9.424
31575,0.034,-0.050,9.845,0.00,0.00,0.00,100.22,-0.024,0.095,-9.451
31585,0.049,-0.033,9.859,0.00,0.00,0.00,100.22,-0.014,0.107,-9.485
31595,0.059,-0.047,9.830,0.00,0.00,0.00,100.22,-0.002,0.078,-9.421
31605,0.063,-0.043,9.837,0.00,0.00,0.00,100.22,0.009,0.058,-9.438
31615,0.054,-0.046,9.863,0.00,0.00,0.00,100.22,-0.017,0.093,-9.453
31625,0.046,-0.048,9.868,0.00,0.00,0.00,100.22,-0.012,0.073,-9.419
31637,0.044,-0.043,9.848,0.00,0.00,0.00,100.22,-0.026,0.051,-9.409
31647,0.043,-0.043,9.832,0.00,0.00,0.00,100.22,-0.017,0.093,-9.436
31657,0.038,-0.035,9.833,0.00,0.00,0.00,100.22,-0.039,0.071,-9.460
31667,0.059,-0.052,9.843,0.00,0.00,0.00,100.22,0.014,0.088,-9.404
31677,0.046,-0.051,9.858,0.00,0.00,0.00,100.22,-0.058,0.085,-9.438
31687,0.049,-0.046,9.845,0.00,0.00,0.00,100.22,-0.002,0.110,-9.414
31697,0.052,-0.056,9.845,0.00,0.00,0.00,100.22,-0.046,0.083,-9.406
31707,0.055,-0.032,9.847,0.00,0.00,0.00,100.22,-0.068,0.090,-9.421
31717,0.053,-0.043,9.852,0.00,0.00,0.00,100.22,-0.002,0.066,-9.424
31727,0.057,-0.047,9.842,0.00,0.00,0.00,100.22,-0.039,0.112,-9.394
31738,0.043,-0.052,9.854,0.00,0.00,0.00,100.22,-0.053,0.090,-9.426
31748,0.050,-0.048,9.853,0.00,0.00,0.00,100.22,-0.044,0.102,-9.421
31758,0.041,-0.037,9.838,0.00,0.00,0.00,100.22,-0.009,0.056,-9.411
31778,0.044,-0.053,9.846,0.00,0.00,0.00,100.22,-0.044,0.068,-9.416
31788,0.044,-0.039,9.849,0.00,0.00,0.00,100.22,-0.024,0.058,-9.468
31798,0.041,-0.049,9.852,0.00,0.00,0.00,100.22,-0.066,0.051,-9.394
31808,0.039,-0.032,9.824,0.00,0.00,0.00,100.22,-0.009,0.063,-9.387
31818,0.052,-0.037,9.829,0.00,0.00,0.00,100.22,-0.044,0.110,-9.414
31828,0.059,-0.040,9.831,0.00,0.00,0.00,100.22,-0.009,0.100,-9.421
31840,0.055,-0.039,9.843,0.00,0.00,0.00,100.22,-0.036,0.073,-9.426
31850,0.029,-0.044,9.854,0.00,0.00,0.00,100.22,-0.056,0.088,-9.433
31860,0.035,-0.040,9.852,0.00,0.00,0.00,100.22,-0.022,0.049,-9.436
31870,0.049,-0.046,9.850,0.00,0.00,0.00,100.22,-0.019,0.053,-9.495
31880,0.052,-0.034,9.832,0.00,0.00,0.00,100.22,-0.024,0.085,-9.441
31890,0.040,-0.037,9.865,0.00,0.00,0.00,100.22,-0.019,0.080,-9.414
31900,0.041,-0.048,9.848,0.00,0.00,0.00,100.22,-0.041,0.085,-9.416
31910,0.046,-0.032,9.852,0.00,0.00,0.00,100.22,-0.014,0.066,-9.414
31920,0.055,-0.052,9.842,0.00,0.00,0.00,100.22,-0.049,0.100,-9.421
31930,0.055,-0.049,9.839,0.00,0.00,0.00,100.22,-0.036,0.068,-9.392
31941,0.050,-0.033,9.847,0.00,0.00,0.00,100.22,-0.049,0.090,-9.448
31951,0.053,-0.038,9.845,0.00,0.00,0.00,100.22,-0.022,0.075,-9.406
31961,0.049,-0.052,9.853,0.00,0.00,0.00,100.22,0.046,0.053,-9.394
31971,0.042,-0.055,9.845,0.00,0.00,0.00,100.22,-0.031,0.066,-9.460
31991,0.058,-0.043,9.833,0.00,0.00,0.00,100.22,-0.009,0.095,-9.441
32001,0.059,-0.046,9.839,0.00,0.00,0.00,100.22,0.004,0.071,-9.397
32011,0.053,-0.050,9.857,0.00,0.00,0.00,100.22,-0.029,0.063,-9.428
32021,0.045,-0.046,9.866,0.00,0.00,0.00,100.22,-0.068,0.102,-9.414
32031,0.043,-0.049,9.839,0.00,0.00,0.00,100.22,-0.017,0.080,-9.431
32044,0.057,-0.032,9.857,0.00,0.00,0.00,100.22,-0.031,0.075,-9.399
32054,0.045,-0.031,9.866,0.00,0.00,0.00,100.22,-0.004,0.046,-9.443
32064,0.047,-0.043,9.860,0.00,0.00,0.00,100.22,-0.049,0.102,-9.453
32074,0.043,-0.032,9.852,0.00,0.00,0.00,100.22,-0.012,0.095,-9.455
32084,0.047,-0.030,9.848,0.00,0.00,0.00,100.22,-0.009,0.063,-9.453
32094,0.055,-0.046,9.839,0.00,0.00,0.00,100.22,-0.024,0.078,-9.404
32104,0.043,-0.038,9.851,0.00,0.00,0.00,100.22,-0.012,0.098,-9.446
32114,0.041,-0.047,9.854,0.00,0.00,0.00,100.22,-0.034,0.061,-9.426
32124,0.062,-0.048,9.842,0.00,0.00,0.00,100.22,-0.004,0.049,-9.399
32134,0.061,-0.052,9.850,0.00,0.00,0.00,100.22,-0.017,0.093,-9.438
32144,0.040,-0.046,9.839,0.00,0.00,0.00,100.22,-0.022,0.068,-9.414
32154,0.047,-0.032,9.848,0.00,0.00,0.00,100.22,0.034,0.053,-9.414
32164,0.065,-0.039,9.848,0.00,0.00,0.00,100.22,0.022,0.095,-9.387
32174,0.055,-0.049,9.840,0.00,0.00,0.00,100.22,-0.022,0.100,-9.438
32184,0.072,-0.036,9.845,0.00,0.00,0.00,100.22,-0.036,0.073,-9.443
32204,0.050,-0.040,9.850,0.00,0.00,0.00,100.22,-0.039,0.056,-9.409
32214,0.037,-0.044,9.842,0.00,0.00,0.00,100.22,0.002,0.083,-9.428
32224,0.030,-0.046,9.839,0.00,0.00,0.00,100.22,0.014,0.068,-9.463
32234,0.041,-0.043,9.835,0.00,0.00,0.00,100.22,-0.049,0.068,-9.411
32244,0.049,-0.053,9.845,0.00,0.00,0.00,100.22,0.004,0.110,-9.404
32254,0.052,-0.041,9.850,0.00,0.00,0.00,100.22,0.004,0.046,-9.460
32264,0.046,-0.045,9.851,0.00,0.00,0.00,100.22,-0.034,0.066,-9.446
32274,0.050,-0.042,9.861,0.00,0.00,0.00,100.22,-0.051,0.056,-9.414
32284,0.053,-0.047,9.846,0.00,0.00,0.00,100.22,0.000,0.083,-9.419
32294,0.048,-0.041,9.842,0.00,0.00,0.00,100.22,-0.022,0.049,-9.436
32304,0.037,-0.046,9.859,0.00,0.00,0.00,100.22,-0.044,0.061,-9.441
32314,0.041,-0.050,9.844,0.00,0.00,0.00,100.22,-0.007,0.046,-9.463
32324,0.036,-0.050,9.849,0.00,0.00,0.00,100.22,-0.066,0.090,-9.424
32334,0.040,-0.033,9.848,0.00,0.00,0.00,100.22,-0.024,0.088,-9.465
32346,0.043,-0.029,9.852,0.00,0.00,0.00,100.22,-0.022,0.039,-9.433
32356,0.046,-0.034,9.838,0.00,0.00,0.00,100.22,-0.012,0.085,-9.426
32366,0.051,-0.041,9.835,0.00,0.00,0.00,100.22,-0.039,0.075,-9.468
32376,0.047,-0.040,9.845,0.00,0.00,0.00,100.22,-0.056,0.053,-9.475
32386,0.050,-0.040,9.862,0.00,0.00,0.00,100.22,-0.049,0.093,-9.436
32396,0.048,-0.050,9.861,0.00,0.00,0.00,100.22,-0.066,0.044,-9.421
32416,0.039,-0.038,9.838,0.00,0.00,0.00,100.22,-0.014,0.083,-9.453
32426,0.040,-0.038,9.854,0.00,0.00,0.00,100.22,-0.014,0.071,-9.406
32436,0.058,-0.039,9.856,0.00,0.00,0.00,100.22,-0.031,0.041,-9.436
32447,0.052,-0.048,9.866,0.00,0.00,0.00,100.22,-0.014,0.083,-9.441
32457,0.049,-0.038,9.850,0.00,0.00,0.00,100.22,-0.036,0.071,-9.436
32467,0.052,-0.039,9.833,0.00,0.00,0.00,100.22,-0.046,0.068,-9.470
32477,0.049,-0.046,9.834,0.00,0.00,0.00,100.22,-0.014,0.098,-9.424
32487,0.044,-0.048,9.843,0.00,0.00,0.00,100.22,-0.044,0.085,-9.438
32497,0.051,-0.035,9.854,0.00,0.00,0.00,100.22,-0.019,0.053,-9.428
32507,0.058,-0.030,9.860,0.00,0.00,0.00,100.22,-0.009,0.024,-9.451
32517,0.058,-0.052,9.836,0.00,0.00,0.00,100.22,-0.031,0.049,-9.433
32527,0.044,-0.047,9.829,0.00,0.00,0.00,100.22,-0.007,0.085,-9.441
32537,0.042,-0.049,9.850,0.00,0.00,0.00,100.22,-0.031,0.078,-9.428
32549,0.055,-0.044,9.852,0.00,0.00,0.00,100.22,0.012,0.080,-9.436
32559,0.055,-0.037,9.843,0.00,0.00,0.00,100.22,-0.041,0.063,-9.453
32569,0.059,-0.039,9.831,0.00,0.00,0.00,100.22,-0.009,0.049,-9.436
32579,0.042,-0.047,9.838,0.00,0.00,0.00,100.22,-0.066,0.066,-9.419
32589,0.052,-0.046,9.841,0.00,0.00,0.00,100.22,-0.012,0.078,-9.428
32599,0.051,-0.029,9.863,0.00,0.00,0.00,100.22,-0.068,0.080,-9.419
32609,0.044,-0.040,9.844,0.00,0.00,0.00,100.22,-0.007,0.029,-9.399
32619,0.052,-0.031,9.848,0.00,0.00,0.00,100.22,0.002,0.061,-9.458
32639,0.051,-0.046,9.846,0.00,0.00,0.00,100.22,-0.002,0.049,-9.455
32650,0.046,-0.027,9.832,0.00,0.00,0.00,100.22,-0.024,0.105,-9.424
32660,0.052,-0.047,9.854,0.00,0.00,0.00,100.22,0.002,0.075,-9.465
32670,0.048,-0.035,9.848,0.00,0.00,0.00,100.22,-0.034,0.085,-9.448
32680,0.049,-0.039,9.846,0.00,0.00,0.00,100.22,-0.061,0.102,-9.426
32690,0.044,-0.039,9.848,0.00,0.00,0.00,100.22,-0.002,0.075,-9.441
32700,0.046,-0.050,9.847,0.00,0.00,0.00,100.22,-0.031,0.110,-9.436
32710,0.059,-0.055,9.838,0.00,0.00,0.00,100.22,-0.019,0.066,-9.431
32720,0.039,-0.059,9.838,0.00,0.00,0.00,100.22,0.012,0.063,-9.458
32730,0.055,-0.046,9.850,0.00,0.00,0.00,100.22,-0.049,0.100,-9.431
32740,0.055,-0.032,9.848,0.00,0.00,0.00,100.22,-0.019,0.105,-9.436
32751,0.044,-0.050,9.830,0.00,0.00,0.00,100.22,-0.024,0.024,-9.453
32761,0.045,-0.052,9.852,0.00,0.00,0.00,100.22,-0.007,0.088,-9.443
32771,0.047,-0.049,9.860,0.00,0.00,0.00,100.22,-0.019,0.071,-9.433
32781,0.053,-0.049,9.853,0.00,0.00,0.00,100.22,-0.019,0.080,-9.409
32791,0.049,-0.047,9.861,0.00,0.00,0.00,100.22,0.014,0.056,-9.428
32801,0.046,-0.044,9.853,0.00,0.00,0.00,100.22,-0.049,0.071,-9.409
32811,0.047,-0.052,9.845,0.00,0.00,0.00,100.22,-0.017,0.078,-9.433
32821,0.049,-0.050,9.857,0.00,0.00,0.00,100.22,-0.012,0.080,-9.399
32831,0.053,-0.042,9.839,0.00,0.00,0.00,100.22,-0.044,0.120,-9.436
32841,0.050,-0.040,9.851,0.00,0.00,0.00,100.22,-0.026,0.056,-9.426
32862,0.049,-0.049,9.853,0.00,0.00,0.00,100.22,-0.029,0.046,-9.451
32872,0.051,-0.047,9.863,0.00,0.00,0.00,100.22,-0.039,0.071,-9.448
32882,0.051,-0.040,9.853,0.00,0.00,0.00,100.22,-0.029,0.063,-9.465
32892,0.052,-0.044,9.849,0.00,0.00,0.00,100.22,-0.022,0.085,-9.419
32902,0.056,-0.051,9.857,0.00,0.00,0.00,100.22,-0.012,0.053,-9.458
32912,0.052,-0.032,9.850,0.00,0.00,0.00,100.22,-0.036,0.132,-9.419
32922,0.050,-0.040,9.848,0.00,0.00,0.00,100.22,-0.022,0.080,-9.424
32932,0.052,-0.056,9.846,0.00,0.00,0.00,100.22,-0.039,0.120,-9.431
32942,0.055,-0.043,9.847,0.00,0.00,0.00,100.22,-0.029,0.073,-9.441
32954,0.046,-0.032,9.846,0.00,0.00,0.00,100.22,0.007,0.068,-9.431
32964,0.040,-0.044,9.857,0.00,0.00,0.00,100.22,0.017,0.095,-9.424
32974,0.052,-0.041,9.854,0.00,0.00,0.00,100.22,-0.007,0.134,-9.375
32984,0.050,-0.034,9.849,0.00,0.00,0.00,100.22,-0.024,0.068,-9.446
32994,0.050,-0.032,9.852,0.00,0.00,0.00,100.22,-0.034,0.066,-9.419
33004,0.052,-0.041,9.851,0.00,0.00,0.00,100.22,-0.007,0.088,-9.460
33014,0.047,-0.031,9.835,0.00,0.00,0.00,100.22,0.017,0.100,-9.441
33024,0.043,-0.030,9.846,0.00,0.00,0.00,100.22,-0.009,0.107,-9.416
33034,0.047,-0.030,9.857,0.00,0.00,0.00,100.22,0.000,0.102,-9.451
33044,0.042,-0.050,9.861,0.00,0.00,0.00,100.22,-0.004,0.112,-9.455
33055,0.047,-0.049,9.843,0.00,0.00,0.00,100.22,0.002,0.085,-9.411
33075,0.052,-0.044,9.851,0.00,0.00,0.00,100.22,0.012,0.068,-9.458
33085,0.052,-0.060,9.841,0.00,0.00,0.00,100.22,-0.051,0.073,-9.426
33095,0.041,-0.044,9.841,0.00,0.00,0.00,100.22,-0.029,0.107,-9.421
33105,0.036,-0.053,9.847,0.00,0.00,0.00,100.22,-0.007,0.132,-9.426
33115,0.037,-0.058,9.857,0.00,0.00,0.00,100.22,-0.019,0.063,-9.379
33125,0.043,-0.043,9.848,0.00,0.00,0.00,100.22,-0.014,0.105,-9.414
33135,0.047,-0.035,9.840,0.00,0.00,0.00,100.22,-0.071,0.071,-9.419
33145,0.047,-0.043,9.848,0.00,0.00,0.00,100.22,-0.083,0.095,-9.460
33156,0.056,-0.044,9.842,0.00,0.00,0.00,100.22,-0.024,0.044,-9.392
33166,0.052,-0.044,9.847,0.00,0.00,0.00,100.22,-0.009,0.085,-9.426
33176,0.059,-0.052,9.845,0.00,0.00,0.00,100.22,-0.022,0.044,-9.453
33186,0.056,-0.040,9.847,0.00,0.00,0.00,100.22,-0.019,0.085,-9.426
33196,0.040,-0.040,9.845,0.00,0.00,0.00,100.22,-0.031,0.098,-9.416
33206,0.043,-0.041,9.854,0.00,0.00,0.00,100.22,-0.058,0.061,-9.463
33216,0.061,-0.060,9.848,0.00,0.00,0.00,100.22,-0.034,0.058,-9.451
33226,0.058,-0.050,9.851,0.00,0.00,0.00,100.22,-0.031,0.066,-9.419
33236,0.037,-0.037,9.848,0.00,0.00,0.00,100.22,-0.034,0.061,-9.424
33246,0.040,-0.042,9.853,0.00,0.00,0.00,100.22,-0.009,0.075,-9.406
33260,0.037,-0.046,9.862,0.00,0.00,0.00,100.22,-0.061,0.090,-9.446
33270,0.043,-0.041,9.856,0.00,0.00,0.00,100.22,0.000,0.049,-9.446
33280,0.058,-0.034,9.844,0.00,0.00,0.00,100.22,0.000,0.117,-9.416
33300,0.031,-0.046,9.840,0.00,0.00,0.00,100.22,-0.026,0.063,-9.436
33310,0.052,-0.040,9.847,0.00,0.00,0.00,100.22,0.007,0.061,-9.409
33320,0.050,-0.046,9.846,0.00,0.00,0.00,100.22,-0.044,0.127,-9.433
33330,0.045,-0.052,9.839,0.00,0.00,0.00,100.22,-0.031,0.088,-9.451
33340,0.056,-0.041,9.835,0.00,0.00,0.00,100.22,-0.041,0.098,-9.421
33350,0.057,-0.048,9.841,0.00,0.00,0.00,100.22,-0.026,0.102,-9.448
33360,0.049,-0.040,9.845,0.00,0.00,0.00,100.22,-0.049,0.066,-9.382
33370,0.050,-0.054,9.845,0.00,0.00,0.00,100.22,-0.026,0.098,-9.421
33380,0.069,-0.053,9.849,0.00,0.00,0.00,100.22,-0.012,0.049,-9.438
33390,0.055,-0.059,9.842,0.00,0.00,0.00,100.22,-0.049,0.066,-9.446
33400,0.046,-0.049,9.865,0.00,0.00,0.00,100.22,-0.029,0.090,-9.465
33410,0.053,-0.047,9.851,0.00,0.00,0.00,100.22,-0.041,0.071,-9.409
33420,0.054,-0.038,9.828,0.00,0.00,0.00,100.22,0.002,0.031,-9.453
33430,0.056,-0.058,9.845,0.00,0.00,0.00,100.22,-0.022,0.110,-9.416
33440,0.055,-0.050,9.847,0.00,0.00,0.00,100.22,0.007,0.080,-9.424
33450,0.038,-0.035,9.844,0.00,0.00,0.00,100.22,-0.029,0.080,-9.478
33460,0.037,-0.037,9.852,0.00,0.00,0.00,100.22,-0.017,0.110,-9.404
33470,0.048,-0.049,9.853,0.00,0.00,0.00,100.22,-0.026,0.137,-9.416
33480,0.069,-0.062,9.854,0.00,0.00,0.00,100.22,-0.041,0.044,-9.362
33490,0.053,-0.050,9.851,0.00,0.00,0.00,100.22,-0.012,0.107,-9.409
33510,0.062,-0.035,9.859,0.00,0.00,0.00,100.22,-0.012,0.110,-9.475
33520,0.057,-0.032,9.832,0.00,0.00,0.00,100.22,0.000,0.068,-9.421
33530,0.056,-0.031,9.832,0.00,0.00,0.00,100.22,0.012,0.031,-9.416
33540,0.041,-0.041,9.845,0.00,0.00,0.00,100.22,0.009,0.095,-9.455
33550,0.053,-0.047,9.851,0.00,0.00,0.00,100.22,-0.029,0.051,-9.443
33561,0.062,-0.038,9.848,0.00,0.00,0.00,100.22,-0.022,0.085,-9.431
33571,0.044,-0.044,9.843,0.00,0.00,0.00,100.22,-0.012,0.053,-9.433
33581,0.050,-0.041,9.836,0.00,0.00,0.00,100.22,-0.024,0.068,-9.411
33591,0.057,-0.047,9.839,0.00,0.00,0.00,100.22,-0.044,0.098,-9.507
33601,0.054,-0.048,9.848,0.00,0.00,0.00,100.22,-0.017,0.095,-9.399
33611,0.040,-0.061,9.848,0.00,0.00,0.00,100.22,-0.012,0.090,-9.446
33621,0.057,-0.064,9.850,0.00,0.00,0.00,100.22,-0.009,0.073,-9.458
33631,0.056,-0.046,9.853,0.00,0.00,0.00,100.22,-0.041,0.041,-9.389
33641,0.053,-0.037,9.841,0.00,0.00,0.00,100.22,-0.058,0.098,-9.436
33651,0.053,-0.037,9.847,0.00,0.00,0.00,100.22,-0.066,0.102,-9.448
33663,0.052,-0.045,9.839,0.00,0.00,0.00,100.22,-0.034,0.073,-9.436
33673,0.046,-0.050,9.824,0.00,0.00,0.00,100.22,0.009,0.088,-9.438
33683,0.055,-0.038,9.849,0.00,0.00,0.00,100.22,-0.039,0.063,-9.414
33693,0.052,-0.045,9.850,0.00,0.00,0.00,100.22,0.017,0.058,-9.441
33703,0.051,-0.038,9.858,0.00,0.00,0.00,100.22,-0.061,0.063,-9.451
33723,0.043,-0.040,9.842,0.00,0.00,0.00,100.22,-0.029,0.068,-9.431
33733,0.049,-0.043,9.853,0.00,0.00,0.00,100.22,-0.053,0.083,-9.428
33743,0.036,-0.046,9.829,0.00,0.00,0.00,100.22,-0.034,0.078,-9.428
33753,0.049,-0.039,9.836,0.00,0.00,0.00,100.22,-0.063,0.095,-9.446
33764,0.053,-0.041,9.845,0.00,0.00,0.00,100.22,0.002,0.080,-9.411
33774,0.056,-0.046,9.842,0.00,0.00,0.00,100.22,-0.036,0.080,-9.441
33784,0.038,-0.050,9.848,0.00,0.00,0.00,100.22,-0.031,0.093,-9.441
33794,0.040,-0.031,9.848,0.00,0.00,0.00,100.22,-0.053,0.102,-9.463
33804,0.048,-0.035,9.854,0.00,0.00,0.00,100.22,-0.022,0.058,-9.428
33814,0.041,-0.041,9.854,0.00,0.00,0.00,100.22,0.014,0.105,-9.414
33824,0.036,-0.054,9.848,0.00,0.00,0.00,100.22,-0.031,0.117,-9.419
33834,0.053,-0.052,9.838,0.00,0.00,0.00,100.22,-0.019,0.044,-9.443
33844,0.044,-0.052,9.829,0.00,0.00,0.00,100.22,-0.012,0.100,-9.480
33854,0.040,-0.049,9.845,0.00,0.00,0.00,100.22,-0.053,0.093,-9.428
33865,0.052,-0.045,9.856,0.00,0.00,0.00,100.22,-0.031,0.095,-9.463
33875,0.035,-0.044,9.846,0.00,0.00,0.00,100.22,-0.022,0.105,-9.451
33885,0.034,-0.053,9.833,0.00,0.00,0.00,100.22,-0.031,0.071,-9.438
33895,0.043,-0.058,9.844,0.00,0.00,0.00,100.22,0.002,0.068,-9.433
33905,0.048,-0.050,9.850,0.00,0.00,0.00,100.22,-0.017,0.093,-9.379
33915,0.052,-0.047,9.845,0.00,0.00,0.00,100.22,-0.014,0.044,-9.448
33935,0.059,-0.045,9.850,0.00,0.00,0.00,100.22,-0.056,0.102,-9.424
33945,0.055,-0.051,9.854,0.00,0.00,0.00,100.22,-0.039,0.117,-9.460
33955,0.041,-0.055,9.837,0.00,0.00,0.00,100.22,-0.017,0.056,-9.463
33967,0.061,-0.053,9.833,0.00,0.00,0.00,100.22,-0.009,0.115,-9.424
33977,0.052,-0.052,9.848,0.00,0.00,0.00,100.22,-0.034,0.044,-9.448
33987,0.052,-0.041,9.861,0.00,0.00,0.00,100.22,0.000,0.083,-9.431
33997,0.057,-0.043,9.854,0.00,0.00,0.00,100.22,-0.073,0.071,-9.438
34007,0.052,-0.044,9.841,0.00,0.00,0.00,100.22,-0.046,0.034,-9.455
34017,0.052,-0.049,9.856,0.00,0.00,0.00,100.22,0.004,0.063,-9.455
34027,0.052,-0.033,9.857,0.00,0.00,0.00,100.22,-0.034,0.105,-9.441
34037,0.054,-0.047,9.842,0.00,0.00,0.00,100.22,-0.017,0.058,-9.409
34047,0.048,-0.036,9.839,0.00,0.00,0.00,100.22,-0.012,0.058,-9.441
34057,0.044,-0.061,9.851,0.00,0.00,0.00,100.22,-0.012,0.120,-9.421
34068,0.046,-0.048,9.865,0.00,0.00,0.00,100.22,-0.051,0.061,-9.436
34078,0.040,-0.034,9.847,0.00,0.00,0.00,100.22,-0.002,0.093,-9.431
34088,0.054,-0.040,9.836,0.00,0.00,0.00,100.22,-0.041,0.080,-9.438
34098,0.053,-0.042,9.845,0.00,0.00,0.00,100.22,-0.012,0.051,-9.453
34108,0.062,-0.052,9.857,0.00,0.00,0.00,100.22,0.022,0.056,-9.455
34118,0.050,-0.034,9.848,0.00,0.00,0.00,100.22,0.014,0.063,-9.458
34138,0.053,-0.040,9.835,0.00,0.00,0.00,100.22,-0.014,0.075,-9.446
34148,0.059,-0.042,9.845,0.00,0.00,0.00,100.22,0.024,0.107,-9.431
34158,0.044,-0.035,9.835,0.00,0.00,0.00,100.22,-0.026,0.083,-9.421
34169,0.052,-0.038,9.847,0.00,0.00,0.00,100.22,0.004,0.073,-9.379
34179,0.050,-0.046,9.857,0.00,0.00,0.00,100.22,-0.056,0.078,-9.433
34189,0.037,-0.043,9.857,0.00,0.00,0.00,100.22,-0.036,0.088,-9.424
34199,0.053,-0.050,9.851,0.00,0.00,0.00,100.22,-0.022,0.071,-9.419
34209,0.049,-0.040,9.833,0.00,0.00,0.00,100.22,-0.046,0.078,-9.455
34219,0.046,-0.051,9.841,0.00,0.00,0.00,100.22,-0.009,0.085,-9.411
34229,0.049,-0.043,9.847,0.00,0.00,0.00,100.22,0.009,0.078,-9.419
34239,0.047,-0.031,9.864,0.00,0.00,0.00,100.22,-0.044,0.090,-9.428
34249,0.046,-0.043,9.857,0.00,0.00,0.00,100.22,-0.022,0.066,-9.414
34259,0.035,-0.038,9.840,0.00,0.00,0.00,100.22,-0.017,0.063,-9.377
34271,0.051,-0.045,9.842,0.00,0.00,0.00,100.22,-0.019,0.125,-9.421
34281,0.049,-0.038,9.848,0.00,0.00,0.00,100.22,-0.026,0.075,-9.473
34291,0.044,-0.044,9.839,0.00,0.00,0.00,100.22,0.000,0.068,-9.443
34301,0.055,-0.051,9.839,0.00,0.00,0.00,100.22,-0.004,0.080,-9.431
34311,0.052,-0.046,9.844,0.00,0.00,0.00,100.22,-0.024,0.132,-9.421
34321,0.038,-0.038,9.847,0.00,0.00,0.00,100.22,-0.029,0.066,-9.436
34331,0.047,-0.047,9.844,0.00,0.00,0.00,100.22,-0.014,0.036,-9.433
34351,0.054,-0.038,9.847,0.00,0.00,0.00,100.22,-0.002,0.026,-9.394
34361,0.048,-0.021,9.857,0.00,0.00,0.00,100.22,-0.049,0.088,-9.441
34373,0.041,-0.021,9.869,0.00,0.00,0.00,100.22,0.009,0.075,-9.453
34383,0.034,-0.040,9.868,0.00,0.00,0.00,100.22,-0.014,0.041,-9.446
34393,0.040,-0.046,9.809,0.00,0.00,0.00,100.22,-0.022,0.068,-9.377
34403,0.051,-0.038,9.816,0.00,0.00,0.00,100.22,-0.007,0.093,-9.463
34413,0.072,-0.046,9.863,0.00,0.00,0.00,100.22,-0.002,0.063,-9.490
34423,0.067,-0.045,9.879,0.00,0.00,0.00,100.22,-0.039,0.098,-9.455
34433,0.038,-0.033,9.859,0.00,0.00,0.00,100.22,-0.024,0.090,-9.406
34443,0.035,-0.023,9.835,0.00,0.00,0.00,100.22,-0.024,0.085,-9.379
34453,0.035,-0.031,9.832,0.00,0.00,0.00,100.22,-0.031,0.095,-9.426
34463,0.043,-0.059,9.832,0.00,0.00,0.00,100.22,-0.009,0.051,-9.448
34473,0.075,-0.069,9.851,0.00,0.00,0.00,100.22,0.004,0.012,-9.441
34483,0.083,-0.076,9.878,0.00,0.00,0.00,100.22,0.002,0.049,-9.426
34493,0.046,-0.053,9.862,0.00,0.00,0.00,100.22,-0.044,0.085,-9.424
34503,0.026,-0.025,9.836,0.00,0.00,0.00,100.22,-0.041,0.134,-9.397
34513,0.015,-0.016,9.816,0.00,0.00,0.00,100.22,-0.007,0.137,-9.394
34523,0.028,-0.022,9.840,0.00,0.00,0.00,100.22,-0.061,0.090,-9.475
34533,0.049,-0.043,9.860,0.00,0.00,0.00,100.22,-0.014,0.071,-9.428
34543,0.083,-0.052,9.848,0.00,0.00,0.00,100.22,0.024,0.022,-9.431
34563,0.054,-0.051,9.837,0.00,0.00,0.00,100.22,-0.014,0.039,-9.419
34574,0.035,-0.035,9.843,0.00,0.00,0.00,100.22,-0.053,0.075,-9.438
34584,0.001,-0.042,9.856,0.00,0.00,0.00,100.22,-0.058,0.147,-9.443
34594,0.011,-0.045,9.849,0.00,0.00,0.00,100.22,-0.031,0.115,-9.431
34604,0.040,-0.058,9.856,0.00,0.00,0.00,100.22,-0.017,0.071,-9.443
34614,0.071,-0.064,9.835,0.00,0.00,0.00,100.22,-0.039,0.066,-9.438
34624,0.092,-0.059,9.840,0.00,0.00,0.00,100.22,-0.004,0.053,-9.414
34634,0.073,-0.037,9.848,0.00,0.00,0.00,100.22,-0.012,0.056,-9.416
34644,0.028,-0.012,9.863,0.00,0.00,0.00,100.22,-0.058,0.107,-9.463
34654,-0.002,-0.006,9.872,0.00,0.00,0.00,100.22,-0.044,0.073,-9.468
34664,0.032,-0.029,9.861,0.00,0.00,0.00,100.22,-0.007,0.112,-9.470
34675,0.053,-0.059,9.833,0.00,0.00,0.00,100.22,-0.029,0.066,-9.387
34685,0.068,-0.070,9.832,0.00,0.00,0.00,100.22,-0.019,0.044,-9.438
34695,0.067,-0.073,9.857,0.00,0.00,0.00,100.22,0.012,0.063,-9.428
34705,0.057,-0.053,9.870,0.00,0.00,0.00,100.22,-0.017,0.053,-9.463
34715,0.046,-0.031,9.854,0.00,0.00,0.00,100.22,-0.068,0.132,-9.453
34725,0.030,-0.035,9.845,0.00,0.00,0.00,100.22,-0.017,0.080,-9.421
34735,0.029,-0.043,9.820,0.00,0.00,0.00,100.22,-0.026,0.134,-9.394
34745,0.043,-0.031,9.847,0.00,0.00,0.00,100.22,-0.056,0.083,-9.419
34755,0.070,-0.037,9.872,0.00,0.00,0.00,100.22,-0.019,0.036,-9.443
34765,0.076,-0.058,9.868,0.00,0.00,0.00,100.22,-0.034,0.061,-9.443
34787,0.054,-0.047,9.825,0.00,0.00,0.00,100.22,-0.019,0.088,-9.419
34797,0.018,-0.046,9.817,0.00,0.00,0.00,100.22,0.029,0.083,-9.402
34807,0.013,-0.061,9.836,0.00,0.00,0.00,100.22,-0.004,0.061,-9.424
34817,0.037,-0.064,9.857,0.00,0.00,0.00,100.22,0.024,0.090,-9.402
34827,0.052,-0.054,9.855,0.00,0.00,0.00,100.22,-0.014,0.105,-9.441
34837,0.073,-0.056,9.844,0.00,0.00,0.00,100.22,0.056,0.100,-9.414
34847,0.079,-0.061,9.815,0.00,0.00,0.00,100.22,-0.009,0.049,-9.419
34857,0.041,-0.041,9.800,0.00,0.00,0.00,100.22,-0.007,0.093,-9.421
34867,0.048,-0.041,9.853,0.00,0.00,0.00,100.22,-0.034,0.085,-9.465
34878,0.036,-0.037,9.889,0.00,0.00,0.00,100.22,-0.041,0.095,-9.478
34888,0.046,-0.037,9.833,0.00,0.00,0.00,100.22,-0.046,0.115,-9.492
34898,0.048,-0.048,9.823,0.00,0.00,0.00,100.22,-0.014,0.073,-9.416
34908,0.069,-0.062,9.842,0.00,0.00,0.00,100.22,-0.026,0.024,-9.414
34918,0.067,-0.054,9.857,0.00,0.00,0.00,100.22,0.007,0.080,-9.441
34928,0.057,-0.043,9.842,0.00,0.00,0.00,100.22,-0.019,0.085,-9.463
34938,0.038,-0.055,9.841,0.00,0.00,0.00,100.22,-0.031,0.058,-9.441
34948,0.062,-0.026,9.876,0.00,0.00,0.00,100.22,-0.019,0.117,-9.441
34958,0.050,-0.020,9.862,0.00,0.00,0.00,100.22,-0.031,0.083,-9.470
34968,0.046,-0.014,9.826,0.00,0.00,0.00,100.22,-0.080,0.041,-9.384
34979,0.064,-0.016,9.857,0.00,0.00,0.00,100.22,-0.019,0.034,-9.448
34999,0.043,-0.043,9.852,0.00,0.00,0.00,100.22,-0.056,0.066,-9.460
35009,0.044,-0.036,9.840,0.00,0.00,0.00,100.22,-0.004,0.049,-9.431
35019,0.044,-0.032,9.855,0.00,0.00,0.00,100.22,-0.031,0.051,-9.416
35029,0.028,-0.037,9.890,0.00,0.00,0.00,100.22,-0.031,0.078,-9.455
35039,0.008,-0.040,9.867,0.00,0.00,0.00,100.22,-0.034,0.127,-9.468
35049,0.025,-0.040,9.837,0.00,0.00,0.00,100.22,-0.063,0.095,-9.473
35059,0.043,-0.036,9.827,0.00,0.00,0.00,100.22,-0.014,0.058,-9.419
35069,0.050,-0.050,9.830,0.00,0.00,0.00,100.22,-0.009,0.044,-9.411
35081,0.064,-0.049,9.861,0.00,0.00,0.00,100.22,0.022,0.122,-9.414
35091,0.050,-0.044,9.861,0.00,0.00,0.00,100.22,-0.031,0.056,-9.455
35101,0.052,-0.041,9.848,0.00,0.00,0.00,100.22,0.046,0.088,-9.419
35111,0.057,-0.043,9.865,0.00,0.00,0.00,100.22,-0.036,0.041,-9.451
35121,0.041,-0.032,9.848,0.00,0.00,0.00,100.22,0.017,0.058,-9.478
35131,0.063,-0.023,9.836,0.00,0.00,0.00,100.22,-0.004,0.093,-9.436
35141,0.054,-0.030,9.835,0.00,0.00,0.00,100.22,-0.056,0.071,-9.404
35151,0.040,-0.029,9.864,0.00,0.00,0.00,100.22,-0.017,0.093,-9.453
35161,0.026,-0.026,9.860,0.00,0.00,0.00,100.22,-0.014,0.090,-9.433
35171,0.035,-0.032,9.853,0.00,0.00,0.00,100.22,-0.007,0.083,-9.428
35182,0.052,-0.029,9.839,0.00,0.00,0.00,100.22,-0.056,0.066,-9.443
35192,0.053,-0.013,9.844,0.00,0.00,0.00,100.22,-0.007,0.068,-9.411
35212,0.036,-0.026,9.850,0.00,0.00,0.00,100.22,0.009,0.105,-9.448
35222,0.036,-0.023,9.848,0.00,0.00,0.00,100.22,-0.051,0.071,-9.421
35232,0.047,-0.035,9.834,0.00,0.00,0.00,100.22,-0.019,0.125,-9.419
35242,0.035,-0.029,9.859,0.00,0.00,0.00,100.22,-0.002,0.083,-9.441
35252,0.039,-0.040,9.860,0.00,0.00,0.00,100.22,-0.056,0.061,-9.451
35262,0.030,-0.047,9.851,0.00,0.00,0.00,100.22,-0.031,0.115,-9.460
35272,0.022,-0.043,9.846,0.00,0.00,0.00,100.22,-0.049,0.046,-9.451
35283,0.030,-0.044,9.838,0.00,0.00,0.00,100.22,-0.041,0.098,-9.419
35293,0.056,-0.036,9.848,0.00,0.00,0.00,100.22,-0.024,0.100,-9.426
35303,0.048,-0.031,9.847,0.00,0.00,0.00,100.22,-0.024,0.046,-9.436
35313,0.053,-0.032,9.845,0.00,0.00,0.00,100.22,-0.044,0.058,-9.428
35323,0.054,-0.047,9.861,0.00,0.00,0.00,100.22,-0.017,0.083,-9.443
35333,0.051,-0.030,9.866,0.00,0.00,0.00,100.22,-0.014,0.080,-9.419
35343,0.055,-0.011,9.861,0.00,0.00,0.00,100.22,-0.058,0.066,-9.409
35353,0.058,-0.012,9.837,0.00,0.00,0.00,100.22,-0.078,0.071,-9.394
35363,0.049,-0.040,9.821,0.00,0.00,0.00,100.22,0.007,0.073,-9.414
35373,0.052,-0.058,9.836,0.00,0.00,0.00,100.22,0.002,0.071,-9.428
35386,0.038,-0.055,9.862,0.00,0.00,0.00,100.22,-0.024,0.105,-9.455
35396,0.043,-0.038,9.851,0.00,0.00,0.00,100.22,-0.026,0.051,-9.446
35406,0.036,-0.034,9.839,0.00,0.00,0.00,100.22,-0.036,0.105,-9.455
35416,0.034,-0.035,9.841,0.00,0.00,0.00,100.22,-0.029,0.061,-9.431
35436,0.038,-0.035,9.843,0.00,0.00,0.00,100.22,-0.049,0.083,-9.460
35446,0.047,-0.020,9.852,0.00,0.00,0.00,100.22,-0.046,0.105,-9.458
35456,0.041,-0.032,9.862,0.00,0.00,0.00,100.22,-0.007,0.078,-9.448
35466,0.055,-0.043,9.853,0.00,0.00,0.00,100.22,-0.036,0.078,-9.448
35476,0.060,-0.017,9.828,0.00,0.00,0.00,100.22,-0.031,0.080,-9.468
35486,0.051,-0.025,9.857,0.00,0.00,0.00,100.22,-0.004,0.120,-9.470
35496,0.046,-0.038,9.848,0.00,0.00,0.00,100.22,-0.039,0.093,-9.451
35506,0.029,-0.041,9.846,0.00,0.00,0.00,100.22,-0.046,0.088,-9.411
35516,0.043,-0.038,9.873,0.00,0.00,0.00,100.22,-0.036,0.095,-9.443
35526,0.044,-0.041,9.851,0.00,0.00,0.00,100.22,-0.036,0.031,-9.433
35536,0.038,-0.034,9.854,0.00,0.00,0.00,100.22,-0.004,0.098,-9.411
35546,0.026,-0.042,9.840,0.00,0.00,0.00,100.22,-0.014,0.075,-9.404
35556,0.034,-0.044,9.832,0.00,0.00,0.00,100.22,-0.007,0.083,-9.421
35566,0.037,-0.042,9.857,0.00,0.00,0.00,100.22,-0.036,0.075,-9.402
35576,0.052,-0.042,9.863,0.00,0.00,0.00,100.22,-0.049,0.088,-9.402
35587,0.040,-0.050,9.840,0.00,0.00,0.00,100.22,0.000,0.088,-9.421
35597,0.053,-0.035,9.829,0.00,0.00,0.00,100.22,-0.058,0.078,-9.382
35607,0.061,-0.030,9.830,0.00,0.00,0.00,100.22,-0.046,0.080,-9.402
35617,0.066,-0.030,9.839,0.00,0.00,0.00,100.22,-0.029,0.080,-9.431
35627,0.038,-0.025,9.860,0.00,0.00,0.00,100.22,-0.026,0.078,-9.453
35647,0.050,-0.030,9.847,0.00,0.00,0.00,100.22,-0.024,0.102,-9.421
35657,0.045,-0.026,9.842,0.00,0.00,0.00,100.22,-0.071,0.039,-9.406
35667,0.055,-0.020,9.850,0.00,0.00,0.00,100.22,-0.024,0.078,-9.433
35677,0.042,-0.024,9.841,0.00,0.00,0.00,100.22,-0.034,0.071,-9.487
35688,0.046,-0.048,9.844,0.00,0.00,0.00,100.22,-0.012,0.051,-9.428
35698,0.053,-0.044,9.859,0.00,0.00,0.00,100.22,0.029,0.085,-9.455
35708,0.053,-0.036,9.842,0.00,0.00,0.00,100.22,-0.029,0.078,-9.421
35718,0.041,-0.027,9.855,0.00,0.00,0.00,100.22,-0.024,0.071,-9.421
35728,0.050,-0.047,9.836,0.00,0.00,0.00,100.22,-0.022,0.098,-9.409
35738,0.047,-0.062,9.842,0.00,0.00,0.00,100.22,-0.034,0.066,-9.441
35748,0.035,-0.037,9.856,0.00,0.00,0.00,100.22,-0.007,0.083,-9.470
35758,0.034,-0.050,9.838,0.00,0.00,0.00,100.22,0.004,0.105,-9.443
35768,0.036,-0.061,9.841,0.00,0.00,0.00,100.22,-0.024,0.102,-9.406
35778,0.036,-0.056,9.835,0.00,0.00,0.00,100.22,-0.046,0.120,-9.463
35790,0.041,-0.053,9.850,0.00,0.00,0.00,100.22,-0.063,0.115,-9.399
35800,0.038,-0.035,9.862,0.00,0.00,0.00,100.22,-0.051,0.105,-9.419
35810,0.037,-0.041,9.860,0.00,0.00,0.00,100.22,-0.014,0.085,-9.431
35820,0.061,-0.028,9.850,0.00,0.00,0.00,100.22,-0.031,0.061,-9.436
35830,0.050,-0.029,9.847,0.00,0.00,0.00,100.22,-0.044,0.044,-9.426
35840,0.063,-0.023,9.840,0.00,0.00,0.00,100.22,-0.053,0.044,-9.431
35860,0.048,-0.044,9.864,0.00,0.00,0.00,100.22,-0.036,0.102,-9.421
35870,0.053,-0.051,9.858,0.00,0.00,0.00,100.22,-0.031,0.110,-9.468
35880,0.037,-0.036,9.834,0.00,0.00,0.00,100.22,-0.049,0.073,-9.419
35891,0.019,-0.046,9.843,0.00,0.00,0.00,100.22,-0.022,0.088,-9.416
35901,0.026,-0.043,9.856,0.00,0.00,0.00,100.22,0.012,0.073,-9.436
35911,0.043,-0.020,9.848,0.00,0.00,0.00,100.22,-0.036,0.063,-9.487
35921,0.041,-0.037,9.857,0.00,0.00,0.00,100.22,-0.034,0.154,-9.426
35931,0.041,-0.036,9.851,0.00,0.00,0.00,100.22,-0.002,0.098,-9.475
35941,0.040,-0.029,9.842,0.00,0.00,0.00,100.22,-0.007,0.117,-9.433
35951,0.050,-0.031,9.836,0.00,0.00,0.00,100.22,-0.009,0.051,-9.436
35961,0.056,-0.040,9.838,0.00,0.00,0.00,100.22,-0.034,0.085,-9.416
35971,0.047,-0.056,9.846,0.00,0.00,0.00,100.22,-0.017,0.056,-9.448
35981,0.050,-0.044,9.858,0.00,0.00,0.00,100.22,-0.022,0.095,-9.428
35992,0.045,-0.035,9.860,0.00,0.00,0.00,100.22,-0.051,0.022,-9.416
36002,0.053,-0.038,9.841,0.00,0.00,0.00,100.22,-0.026,0.071,-9.409
36012,0.065,-0.037,9.832,0.00,0.00,0.00,100.22,-0.014,0.031,-9.428
36022,0.040,-0.032,9.828,0.00,0.00,0.00,100.22,0.007,0.085,-9.409
36032,0.037,-0.037,9.834,0.00,0.00,0.00,100.22,-0.031,0.102,-9.455
36042,0.025,-0.040,9.851,0.00,0.00,0.00,100.22,-0.022,0.044,-9.460
36052,0.043,-0.026,9.861,0.00,0.00,0.00,100.22,-0.017,0.102,-9.448
36062,0.063,-0.039,9.854,0.00,0.00,0.00,100.22,-0.022,0.073,-9.480
36082,0.054,-0.035,9.850,0.00,0.00,0.00,100.22,0.024,0.044,-9.426
36093,0.055,-0.044,9.839,0.00,0.00,0.00,100.22,-0.036,0.071,-9.441
36103,0.025,-0.046,9.869,0.00,0.00,0.00,100.22,-0.044,0.090,-9.451
36113,0.043,-0.032,9.857,0.00,0.00,0.00,100.22,-0.019,0.051,-9.448
36123,0.049,-0.028,9.844,0.00,0.00,0.00,100.22,-0.012,0.100,-9.406
36133,0.034,-0.022,9.849,0.00,0.00,0.00,100.22,-0.046,0.058,-9.414
36143,0.029,-0.037,9.844,0.00,0.00,0.00,100.22,-0.073,0.049,-9.421
36153,0.026,-0.035,9.850,0.00,0.00,0.00,100.22,-0.009,0.083,-9.428
36163,0.038,-0.031,9.844,0.00,0.00,0.00,100.22,-0.056,0.066,-9.419
36173,0.046,-0.029,9.861,0.00,0.00,0.00,100.22,-0.036,0.100,-9.431
36183,0.051,-0.037,9.852,0.00,0.00,0.00,100.22,-0.019,0.044,-9.438
36195,0.055,-0.045,9.854,0.00,0.00,0.00,100.22,-0.036,0.120,-9.438
36205,0.056,-0.047,9.845,0.00,0.00,0.00,100.22,-0.004,0.058,-9.431
36215,0.066,-0.052,9.850,0.00,0.00,0.00,100.22,-0.012,0.029,-9.453
36225,0.061,-0.055,9.835,0.00,0.00,0.00,100.22,-0.053,0.034,-9.451
36235,0.040,-0.047,9.840,0.00,0.00,0.00,100.22,0.019,0.039,-9.394
36245,0.046,-0.049,9.838,0.00,0.00,0.00,100.22,-0.034,0.063,-9.394
36255,0.042,-0.036,9.853,0.00,0.00,0.00,100.22,-0.012,0.112,-9.436
36265,0.038,-0.030,9.850,0.00,0.00,0.00,100.22,-0.080,0.083,-9.500
36275,0.038,-0.037,9.836,0.00,0.00,0.00,100.22,-0.019,0.100,-9.438
36296,0.042,-0.039,9.848,0.00,0.00,0.00,100.22,-0.024,0.093,-9.399
36306,0.061,-0.038,9.839,0.00,0.00,0.00,100.22,-0.088,0.068,-9.428
36316,0.056,-0.028,9.843,0.00,0.00,0.00,100.22,-0.051,0.095,-9.411
36326,0.048,-0.036,9.861,0.00,0.00,0.00,100.22,-0.031,0.061,-9.451
36336,0.051,-0.038,9.842,0.00,0.00,0.00,100.22,-0.041,0.073,-9.426
36346,0.058,-0.036,9.845,0.00,0.00,0.00,100.22,-0.024,0.073,-9.453
36356,0.051,-0.029,9.864,0.00,0.00,0.00,100.22,-0.012,0.098,-9.438
36366,0.040,-0.043,9.833,0.00,0.00,0.00,100.22,-0.019,0.120,-9.409
36376,0.034,-0.051,9.842,0.00,0.00,0.00,100.22,-0.017,0.142,-9.433
36386,0.034,-0.049,9.848,0.00,0.00,0.00,100.22,-0.039,0.083,-9.433
36399,0.019,-0.051,9.854,0.00,0.00,0.00,100.22,-0.056,0.066,-9.416
36409,0.028,-0.037,9.845,0.00,0.00,0.00,100.22,-0.014,0.093,-9.379
36419,0.056,-0.047,9.851,0.00,0.00,0.00,100.22,-0.022,0.051,-9.443
36429,0.048,-0.042,9.858,0.00,0.00,0.00,100.22,-0.031,0.071,-9.416
36439,0.039,-0.049,9.844,0.00,0.00,0.00,100.22,-0.036,0.071,-9.414
36449,0.046,-0.049,9.843,0.00,0.00,0.00,100.22,0.017,0.053,-9.453
36459,0.043,-0.040,9.852,0.00,0.00,0.00,100.22,-0.066,0.093,-9.438
36469,0.050,-0.043,9.842,0.00,0.00,0.00,100.22,0.009,0.098,-9.438
36479,0.052,-0.032,9.851,0.00,0.00,0.00,100.22,-0.063,0.093,-9.441
36489,0.037,-0.032,9.850,0.00,0.00,0.00,100.22,-0.031,0.122,-9.433
36509,0.040,-0.024,9.851,0.00,0.00,0.00,100.22,-0.051,0.085,-9.453
36519,0.052,-0.023,9.856,0.00,0.00,0.00,100.22,-0.044,0.071,-9.453
36529,0.037,-0.035,9.845,0.00,0.00,0.00,100.22,-0.049,0.024,-9.428
36539,0.043,-0.040,9.847,0.00,0.00,0.00,100.22,-0.049,0.112,-9.411
36549,0.047,-0.022,9.853,0.00,0.00,0.00,100.22,-0.024,0.071,-9.463
36559,0.047,-0.027,9.845,0.00,0.00,0.00,100.22,-0.007,0.034,-9.436
36569,0.046,-0.037,9.855,0.00,0.00,0.00,100.22,-0.009,0.073,-9.431
36579,0.041,-0.036,9.841,0.00,0.00,0.00,100.22,-0.029,0.075,-9.421
36589,0.038,-0.055,9.856,0.00,0.00,0.00,100.22,-0.036,0.063,-9.404
36600,0.012,-0.050,9.853,0.00,0.00,0.00,100.22,-0.017,0.073,-9.451
36610,0.030,-0.057,9.844,0.00,0.00,0.00,100.22,-0.051,0.051,-9.431
36620,0.046,-0.056,9.856,0.00,0.00,0.00,100.22,-0.036,0.125,-9.431
36630,0.057,-0.049,9.861,0.00,0.00,0.00,100.22,0.002,0.073,-9.480
36640,0.056,-0.038,9.849,0.00,0.00,0.00,100.22,-0.061,0.056,-9.448
36650,0.048,-0.025,9.838,0.00,0.00,0.00,100.22,-0.031,0.075,-9.399
36660,0.062,-0.035,9.832,0.00,0.00,0.00,100.22,-0.007,0.066,-9.421
36670,0.044,-0.026,9.849,0.00,0.00,0.00,100.22,-0.044,0.068,-9.453
36680,0.045,-0.034,9.851,0.00,0.00,0.00,100.22,-0.024,0.112,-9.365
36690,0.058,-0.040,9.839,0.00,0.00,0.00,100.22,0.004,0.085,-9.382
36701,0.051,-0.036,9.854,0.00,0.00,0.00,100.22,-0.034,0.127,-9.421
36711,0.052,-0.043,9.847,0.00,0.00,0.00,100.22,-0.036,0.083,-9.431
36731,0.044,-0.035,9.837,0.00,0.00,0.00,100.22,-0.017,0.078,-9.448
36741,0.037,-0.043,9.841,0.00,0.00,0.00,100.22,-0.017,0.122,-9.443
36751,0.028,-0.034,9.851,0.00,0.00,0.00,100.22,-0.071,0.090,-9.448
36761,0.043,-0.026,9.866,0.00,0.00,0.00,100.22,-0.056,0.112,-9.426
36771,0.029,-0.022,9.857,0.00,0.00,0.00,100.22,-0.068,0.046,-9.392
36781,0.043,-0.041,9.846,0.00,0.00,0.00,100.22,-0.058,0.098,-9.433
36791,0.068,-0.050,9.838,0.00,0.00,0.00,100.22,-0.078,0.090,-9.419
36802,0.046,-0.058,9.853,0.00,0.00,0.00,100.22,-0.036,0.090,-9.443
36812,0.044,-0.040,9.841,0.00,0.00,0.00,100.22,-0.026,0.058,-9.436
36822,0.043,-0.044,9.840,0.00,0.00,0.00,100.22,-0.009,0.056,-9.455
36832,0.046,-0.042,9.851,0.00,0.00,0.00,100.22,-0.012,0.036,-9.404
36842,0.055,-0.046,9.848,0.00,0.00,0.00,100.22,-0.014,0.098,-9.365
36852,0.056,-0.028,9.845,0.00,0.00,0.00,100.22,-0.049,0.071,-9.426
36862,0.027,-0.037,9.829,0.00,0.00,0.00,100.22,-0.024,0.058,-9.465
36872,0.042,-0.028,9.844,0.00,0.00,0.00,100.22,-0.063,0.046,-9.470
36882,0.043,-0.040,9.854,0.00,0.00,0.00,100.22,-0.049,0.090,-9.458
36892,0.029,-0.042,9.828,0.00,0.00,0.00,100.22,-0.044,0.107,-9.426
36904,0.035,-0.041,9.832,0.00,0.00,0.00,100.22,-0.034,0.053,-9.414
36914,0.049,-0.032,9.847,0.00,0.00,0.00,100.22,-0.012,0.075,-9.448
36924,0.050,-0.030,9.858,0.00,0.00,0.00,100.22,-0.024,0.083,-9.411
36944,0.042,-0.034,9.848,0.00,0.00,0.00,100.22,0.014,0.120,-9.431
36954,0.050,-0.035,9.844,0.00,0.00,0.00,100.22,-0.046,0.083,-9.416
36964,0.039,-0.032,9.851,0.00,0.00,0.00,100.22,-0.046,0.044,-9.448
36974,0.038,-0.022,9.874,0.00,0.00,0.00,100.22,-0.058,0.068,-9.416
36984,0.032,-0.025,9.851,0.00,0.00,0.00,100.22,-0.029,0.071,-9.411
36994,0.048,-0.043,9.849,0.00,0.00,0.00,100.22,-0.034,0.036,-9.453
37010,0.048,-0.044,9.859,0.00,0.00,0.00,100.22,-0.046,0.095,-9.411
37020,0.053,-0.046,9.838,0.00,0.00,0.00,100.22,-0.058,0.071,-9.414
37030,0.039,-0.047,9.835,0.00,0.00,0.00,100.22,-0.004,0.066,-9.426
37040,0.052,-0.048,9.841,0.00,0.00,0.00,100.22,-0.056,0.083,-9.426
37050,0.071,-0.040,9.857,0.00,0.00,0.00,100.22,-0.024,0.110,-9.438
37060,0.055,-0.032,9.846,0.00,0.00,0.00,100.22,-0.041,0.046,-9.406
37070,0.031,-0.038,9.854,0.00,0.00,0.00,100.22,-0.041,0.098,-9.389
37080,0.033,-0.028,9.852,0.00,0.00,0.00,100.22,-0.036,0.075,-9.436
37090,0.032,-0.045,9.850,0.00,0.00,0.00,100.22,-0.078,0.100,-9.409
37100,0.038,-0.037,9.854,0.00,0.00,0.00,100.22,-0.019,0.095,-9.490
37110,0.029,-0.026,9.850,0.00,0.00,0.00,100.22,-0.058,0.159,-9.431
37120,0.039,-0.049,9.859,0.00,0.00,0.00,100.22,-0.053,0.073,-9.448
37130,0.050,-0.028,9.860,0.00,0.00,0.00,100.22,-0.034,0.071,-9.438
37140,0.065,-0.019,9.859,0.00,0.00,0.00,100.22,-0.039,0.073,-9.463
37160,0.039,-0.014,9.844,0.00,0.00,0.00,100.22,-0.046,0.046,-9.453
37170,0.047,-0.011,9.842,0.00,0.00,0.00,100.22,-0.088,0.056,-9.448
37180,0.046,-0.032,9.868,0.00,0.00,0.00,100.22,-0.058,0.014,-9.448
37190,0.043,-0.031,9.857,0.00,0.00,0.00,100.22,-0.007,0.075,-9.402
37200,0.037,-0.034,9.847,0.00,0.00,0.00,100.22,-0.014,0.088,-9.428
37209,0.044,-0.049,9.848,0.00,0.00,0.00,100.22,-0.009,0.102,-9.414
37219,0.036,-0.056,9.852,0.00,0.00,0.00,100.22,0.026,0.083,-9.406
37229,0.035,-0.058,9.840,0.00,0.00,0.00,100.22,-0.034,0.100,-9.411
37239,0.035,-0.059,9.833,0.00,0.00,0.00,100.22,-0.039,0.122,-9.424
37249,0.036,-0.044,9.847,0.00,0.00,0.00,100.22,-0.036,0.102,-9.448
37259,0.039,-0.033,9.842,0.00,0.00,0.00,100.22,-0.046,0.088,-9.424
37269,0.037,-0.043,9.826,0.00,0.00,0.00,100.22,-0.034,0.039,-9.433
37279,0.053,-0.038,9.838,0.00,0.00,0.00,100.22,-0.002,0.075,-9.436
37289,0.055,-0.044,9.838,0.00,0.00,0.00,100.22,-0.012,0.066,-9.433
37299,0.049,-0.052,9.833,0.00,0.00,0.00,100.22,-0.026,0.063,-9.443
37310,0.046,-0.047,9.829,0.00,0.00,0.00,100.22,-0.024,0.115,-9.419
37320,0.036,-0.049,9.838,0.00,0.00,0.00,100.22,-0.044,0.056,-9.404
37330,0.059,-0.051,9.827,0.00,0.00,0.00,100.22,-0.017,0.063,-9.428
37340,0.055,-0.041,9.848,0.00,0.00,0.00,100.22,-0.063,0.098,-9.428
37350,0.053,-0.036,9.841,0.00,0.00,0.00,100.22,-0.049,0.112,-9.387
37370,0.046,-0.031,9.841,0.00,0.00,0.00,100.22,-0.019,0.080,-9.397
37380,0.052,-0.034,9.834,0.00,0.00,0.00,100.22,-0.014,0.090,-9.451
37390,0.047,-0.041,9.833,0.00,0.00,0.00,100.22,-0.036,0.085,-9.453
37400,0.047,-0.033,9.840,0.00,0.00,0.00,100.22,-0.044,0.063,-9.409
37410,0.048,-0.037,9.867,0.00,0.00,0.00,100.22,-0.036,0.098,-9.402
37420,0.055,-0.046,9.841,0.00,0.00,0.00,100.22,-0.034,0.115,-9.431
37430,0.030,-0.043,9.824,0.00,0.00,0.00,100.22,-0.022,0.100,-9.468
37440,0.028,-0.030,9.826,0.00,0.00,0.00,100.22,-0.041,0.115,-9.433
37450,0.046,-0.029,9.833,0.00,0.00,0.00,100.22,-0.024,0.107,-9.441
37460,0.051,-0.025,9.842,0.00,0.00,0.00,100.22,-0.051,0.063,-9.428
37470,0.056,-0.040,9.859,0.00,0.00,0.00,100.22,-0.046,0.066,-9.470
37480,0.062,-0.052,9.867,0.00,0.00,0.00,100.22,-0.073,0.080,-9.473
37490,0.047,-0.039,9.856,0.00,0.00,0.00,100.22,-0.051,0.068,-9.411
37500,0.056,-0.041,9.848,0.00,0.00,0.00,100.22,-0.019,0.073,-9.421
37511,0.056,-0.039,9.845,0.00,0.00,0.00,100.22,0.002,0.093,-9.446
37521,0.053,-0.046,9.855,0.00,0.00,0.00,100.22,-0.007,0.041,-9.433
37531,0.044,-0.050,9.856,0.00,0.00,0.00,100.22,0.000,0.083,-9.448
37541,0.032,-0.059,9.846,0.00,0.00,0.00,100.22,-0.058,0.095,-9.436
37551,0.033,-0.035,9.864,0.00,0.00,0.00,100.22,-0.017,0.080,-9.451
37561,0.024,-0.042,9.846,0.00,0.00,0.00,100.22,-0.063,0.093,-9.411
37581,0.029,-0.041,9.851,0.00,0.00,0.00,100.22,-0.036,0.107,-9.421
37591,0.044,-0.048,9.860,0.00,0.00,0.00,100.22,-0.053,0.083,-9.424
37601,0.041,-0.055,9.854,0.00,0.00,0.00,100.22,-0.009,0.056,-9.468
37613,0.033,-0.057,9.830,0.00,0.00,0.00,100.22,-0.019,0.093,-9.438
37623,0.046,-0.039,9.845,0.00,0.00,0.00,100.22,-0.004,0.058,-9.455
37633,0.029,-0.030,9.860,0.00,0.00,0.00,100.22,-0.036,0.107,-9.438
37643,0.030,-0.027,9.872,0.00,0.00,0.00,100.22,-0.007,0.026,-9.455
37653,0.047,-0.027,9.869,0.00,0.00,0.00,100.22,-0.056,0.073,-9.438
37663,0.048,-0.018,9.872,0.00,0.00,0.00,100.22,-0.075,0.071,-9.451
37673,0.059,-0.025,9.845,0.00,0.00,0.00,100.22,-0.031,0.034,-9.448
37683,0.063,-0.044,9.838,0.00,0.00,0.00,100.22,-0.049,0.049,-9.421
37693,0.060,-0.035,9.833,0.00,0.00,0.00,100.22,-0.095,0.046,-9.399
37703,0.062,-0.022,9.846,0.00,0.00,0.00,100.22,-0.017,0.063,-9.428
37714,0.060,-0.039,9.854,0.00,0.00,0.00,100.22,-0.029,0.036,-9.433
37724,0.049,-0.049,9.845,0.00,0.00,0.00,100.22,-0.017,0.083,-9.448
37734,0.034,-0.044,9.843,0.00,0.00,0.00,100.22,-0.002,0.120,-9.482
37744,0.040,-0.047,9.848,0.00,0.00,0.00,100.22,-0.017,0.098,-9.436
37754,0.034,-0.040,9.836,0.00,0.00,0.00,100.22,-0.026,0.063,-9.460
37764,0.046,-0.043,9.835,0.00,0.00,0.00,100.22,-0.039,0.095,-9.433
37774,0.028,-0.028,9.848,0.00,0.00,0.00,100.22,-0.056,0.095,-9.431
37794,0.035,-0.039,9.859,0.00,0.00,0.00,100.22,-0.051,0.098,-9.455
37804,0.038,-0.033,9.856,0.00,0.00,0.00,100.22,-0.002,0.061,-9.441
37815,0.043,-0.034,9.842,0.00,0.00,0.00,100.22,-0.036,0.100,-9.460
37825,0.052,-0.035,9.850,0.00,0.00,0.00,100.22,-0.058,0.100,-9.421
37835,0.043,-0.047,9.857,0.00,0.00,0.00,100.22,-0.066,0.083,-9.443
37845,0.047,-0.039,9.849,0.00,0.00,0.00,100.22,-0.053,0.080,-9.446
37855,0.044,-0.017,9.861,0.00,0.00,0.00,100.22,-0.058,0.071,-9.455
37865,0.034,-0.028,9.858,0.00,0.00,0.00,100.22,-0.034,0.078,-9.448
37875,0.046,-0.027,9.859,0.00,0.00,0.00,100.22,-0.036,0.112,-9.409
37885,0.047,-0.032,9.832,0.00,0.00,0.00,100.22,-0.019,0.085,-9.468
37895,0.053,-0.020,9.872,0.00,0.00,0.00,100.22,-0.009,0.075,-9.473
37905,0.049,-0.022,9.843,0.00,0.00,0.00,100.22,-0.019,0.066,-9.433
37917,0.039,-0.040,9.841,0.00,0.00,0.00,100.22,-0.034,0.066,-9.424
37927,0.048,-0.053,9.839,0.00,0.00,0.00,100.22,-0.007,0.068,-9.453
37937,0.052,-0.051,9.837,0.00,0.00,0.00,100.22,0.022,0.090,-9.409
37947,0.047,-0.058,9.857,0.00,0.00,0.00,100.22,-0.019,0.056,-9.465
37957,0.032,-0.056,9.855,0.00,0.00,0.00,100.22,-0.012,0.080,-9.416
37967,0.025,-0.047,9.849,0.00,0.00,0.00,100.22,0.012,0.075,-9.460
37977,0.047,-0.050,9.848,0.00,0.00,0.00,100.22,0.009,0.100,-9.426
37987,0.050,-0.038,9.865,0.00,0.00,0.00,100.22,-0.019,0.080,-9.424
38007,0.046,-0.020,9.860,0.00,0.00,0.00,100.22,-0.041,0.066,-9.492
38018,0.048,-0.013,9.869,0.00,0.00,0.00,100.22,-0.061,0.063,-9.487
38028,0.036,-0.013,9.847,0.00,0.00,0.00,100.22,-0.026,0.073,-9.438
38038,0.040,-0.032,9.827,0.00,0.00,0.00,100.22,-0.056,0.022,-9.463
38048,0.050,-0.028,9.845,0.00,0.00,0.00,100.22,-0.058,0.066,-9.446
38058,0.037,-0.049,9.859,0.00,0.00,0.00,100.22,-0.009,0.078,-9.406
38068,0.055,-0.044,9.854,0.00,0.00,0.00,100.22,-0.031,0.083,-9.470
38078,0.045,-0.053,9.841,0.00,0.00,0.00,100.22,-0.036,0.022,-9.409
38088,0.026,-0.052,9.857,0.00,0.00,0.00,100.22,-0.031,0.061,-9.428
38098,0.030,-0.024,9.841,0.00,0.00,0.00,100.22,-0.044,0.088,-9.357
38108,0.049,-0.036,9.841,0.00,0.00,0.00,100.22,-0.024,0.090,-9.404
38119,0.038,-0.035,9.850,0.00,0.00,0.00,100.22,-0.051,0.122,-9.392
38129,0.036,-0.017,9.864,0.00,0.00,0.00,100.22,-0.066,0.110,-9.441
38139,0.053,-0.029,9.863,0.00,0.00,0.00,100.22,-0.088,0.102,-9.446
38149,0.041,-0.034,9.836,0.00,0.00,0.00,100.22,-0.039,0.093,-9.416
38159,0.053,-0.023,9.842,0.00,0.00,0.00,100.22,-0.049,0.093,-9.465
38169,0.051,-0.050,9.854,0.00,0.00,0.00,100.22,-0.056,0.090,-9.426
38179,0.033,-0.052,9.853,0.00,0.00,0.00,100.22,0.014,0.041,-9.446
38189,0.059,-0.045,9.845,0.00,0.00,0.00,100.22,0.017,0.063,-9.419
38199,0.043,-0.041,9.850,0.00,0.00,0.00,100.22,-0.007,0.058,-9.397
38221,0.047,-0.031,9.856,0.00,0.00,0.00,100.22,-0.022,0.068,-9.436
38231,0.034,-0.028,9.842,0.00,0.00,0.00,100.22,-0.024,0.068,-9.409
38241,0.034,-0.022,9.857,0.00,0.00,0.00,100.22,-0.071,0.080,-9.448
38251,0.041,-0.033,9.849,0.00,0.00,0.00,100.22,-0.053,0.095,-9.426
38261,0.044,-0.023,9.850,0.00,0.00,0.00,100.22,-0.009,0.088,-9.426
38271,0.035,-0.037,9.839,0.00,0.00,0.00,100.22,-0.034,0.125,-9.416
38281,0.058,-0.044,9.842,0.00,0.00,0.00,100.22,-0.031,0.078,-9.428
38291,0.042,-0.028,9.840,0.00,0.00,0.00,100.22,-0.049,0.066,-9.451
38301,0.043,-0.046,9.848,0.00,0.00,0.00,100.22,-0.017,0.088,-9.441
38311,0.054,-0.048,9.854,0.00,0.00,0.00,100.22,-0.034,0.139,-9.414
38323,0.050,-0.041,9.858,0.00,0.00,0.00,100.22,-0.034,0.078,-9.411
38333,0.053,-0.028,9.842,0.00,0.00,0.00,100.22,-0.041,0.061,-9.404
38343,0.038,-0.024,9.861,0.00,0.00,0.00,100.22,-0.034,0.051,-9.448
38353,0.044,-0.020,9.856,0.00,0.00,0.00,100.22,-0.046,0.085,-9.414
38363,0.043,-0.008,9.847,0.00,0.00,0.00,100.22,-0.053,0.085,-9.451
38373,0.034,-0.025,9.856,0.00,0.00,0.00,100.22,-0.066,0.105,-9.465
38383,0.041,-0.031,9.836,0.00,0.00,0.00,100.22,-0.068,0.073,-9.446
38393,0.039,-0.040,9.851,0.00,0.00,0.00,100.22,-0.004,0.073,-9.416
38403,0.033,-0.049,9.853,0.00,0.00,0.00,100.22,-0.007,0.071,-9.372
38413,0.041,-0.053,9.844,0.00,0.00,0.00,100.22,0.007,0.102,-9.411
38433,0.038,-0.046,9.849,0.00,0.00,0.00,100.22,-0.004,0.039,-9.409
38443,0.032,-0.037,9.848,0.00,0.00,0.00,100.22,-0.026,0.073,-9.406
38453,0.046,-0.032,9.839,0.00,0.00,0.00,100.22,-0.026,0.112,-9.475
38463,0.049,-0.034,9.841,0.00,0.00,0.00,100.22,-0.056,0.127,-9.453
38473,0.043,-0.023,9.842,0.00,0.00,0.00,100.22,-0.029,0.031,-9.441
38483,0.040,-0.040,9.862,0.00,0.00,0.00,100.22,-0.026,0.088,-9.431
38493,0.053,-0.043,9.849,0.00,0.00,0.00,100.22,-0.022,0.053,-9.438
38503,0.050,-0.035,9.844,0.00,0.00,0.00,100.22,-0.029,0.075,-9.455
38513,0.042,-0.038,9.853,0.00,0.00,0.00,100.22,-0.019,0.085,-9.431
38525,0.056,-0.037,9.858,0.00,0.00,0.00,100.22,-0.026,0.100,-9.468
38535,0.052,-0.038,9.839,0.00,0.00,0.00,100.22,-0.036,0.085,-9.438
38545,0.050,-0.019,9.842,0.00,0.00,0.00,100.22,-0.012,0.105,-9.431
38555,0.037,-0.034,9.864,0.00,0.00,0.00,100.22,-0.036,0.085,-9.443
38565,0.031,-0.038,9.844,0.00,0.00,0.00,100.22,-0.078,0.095,-9.473
38575,0.042,-0.035,9.828,0.00,0.00,0.00,100.22,-0.066,0.066,-9.433
38585,0.044,-0.021,9.841,0.00,0.00,0.00,100.22,-0.007,0.098,-9.416
38595,0.048,-0.031,9.838,0.00,0.00,0.00,100.22,-0.046,0.078,-9.460
38605,0.059,-0.037,9.838,0.00,0.00,0.00,100.22,-0.012,0.083,-9.389
38615,0.037,-0.038,9.835,0.00,0.00,0.00,100.22,-0.036,0.083,-9.455
38626,0.044,-0.034,9.848,0.00,0.00,0.00,100.22,-0.071,0.075,-9.446
38646,0.050,-0.044,9.848,0.00,0.00,0.00,100.22,-0.017,0.041,-9.431
38656,0.047,-0.034,9.852,0.00,0.00,0.00,100.22,-0.053,0.100,-9.431
38666,0.062,-0.037,9.851,0.00,0.00,0.00,100.22,-0.063,0.095,-9.379
38676,0.053,-0.014,9.847,0.00,0.00,0.00,100.22,-0.046,0.075,-9.451
38686,0.037,-0.016,9.860,0.00,0.00,0.00,100.22,-0.056,0.112,-9.414
38696,0.046,-0.037,9.848,0.00,0.00,0.00,100.22,0.009,0.088,-9.416
38706,0.063,-0.016,9.841,0.00,0.00,0.00,100.22,-0.039,0.112,-9.409
38716,0.063,-0.026,9.849,0.00,0.00,0.00,100.22,-0.046,0.066,-9.443
38727,0.055,-0.039,9.840,0.00,0.00,0.00,100.22,-0.002,0.046,-9.416
38737,0.041,-0.041,9.851,0.00,0.00,0.00,100.22,-0.053,0.073,-9.428
38747,0.047,-0.041,9.845,0.00,0.00,0.00,100.22,-0.046,0.026,-9.424
38757,0.041,-0.046,9.834,0.00,0.00,0.00,100.22,-0.039,0.063,-9.436
38767,0.044,-0.045,9.850,0.00,0.00,0.00,100.22,-0.026,0.112,-9.394
38777,0.046,-0.032,9.854,0.00,0.00,0.00,100.22,-0.019,0.093,-9.441
38787,0.043,-0.034,9.866,0.00,0.00,0.00,100.22,-0.034,0.053,-9.443
38797,0.034,-0.031,9.844,0.00,0.00,0.00,100.22,-0.044,0.112,-9.404
38807,0.048,-0.032,9.847,0.00,0.00,0.00,100.22,-0.056,0.073,-9.421
38817,0.046,-0.041,9.848,0.00,0.00,0.00,100.22,-0.017,0.063,-9.406
38828,0.049,-0.034,9.848,0.00,0.00,0.00,100.22,-0.029,0.115,-9.428
38838,0.054,-0.044,9.833,0.00,0.00,0.00,100.22,-0.009,0.058,-9.416
38858,0.055,-0.047,9.854,0.00,0.00,0.00,100.22,-0.004,0.068,-9.478
38868,0.045,-0.032,9.848,0.00,0.00,0.00,100.22,-0.039,0.085,-9.446
38878,0.038,-0.035,9.853,0.00,0.00,0.00,100.22,-0.051,0.046,-9.406
38888,0.034,-0.029,9.854,0.00,0.00,0.00,100.22,-0.022,0.066,-9.416
38898,0.032,-0.025,9.846,0.00,0.00,0.00,100.22,-0.056,0.058,-9.421
38908,0.027,-0.038,9.857,0.00,0.00,0.00,100.22,-0.058,0.107,-9.478
38918,0.045,-0.046,9.850,0.00,0.00,0.00,100.22,0.002,0.132,-9.419
38930,0.042,-0.040,9.860,0.00,0.00,0.00,100.22,-0.034,0.095,-9.433
38940,0.034,-0.043,9.852,0.00,0.00,0.00,100.22,-0.056,0.098,-9.433
38950,0.052,-0.029,9.833,0.00,0.00,0.00,100.22,-0.044,0.088,-9.404
38960,0.047,-0.041,9.836,0.00,0.00,0.00,100.22,-0.026,0.075,-9.441
38970,0.047,-0.043,9.863,0.00,0.00,0.00,100.22,-0.004,0.093,-9.453
38980,0.046,-0.034,9.888,0.00,0.00,0.00,100.22,-0.007,0.031,-9.453
38990,0.045,-0.024,9.854,0.00,0.00,0.00,100.22,0.007,0.046,-9.436
39000,0.052,-0.032,9.845,0.00,0.00,0.00,100.22,-0.051,0.075,-9.419
39010,0.051,-0.020,9.870,0.00,0.00,0.00,100.22,-0.056,0.068,-9.468
39020,0.051,-0.010,9.865,0.00,0.00,0.00,100.22,-0.002,0.073,-9.458
39031,0.044,-0.007,9.862,0.00,0.00,0.00,100.22,-0.063,0.073,-9.438
39041,0.041,0.011,9.880,0.00,0.00,0.00,100.22,-0.053,0.053,-9.475
39051,0.043,-0.011,9.868,0.00,0.00,0.00,100.22,-0.075,0.098,-9.453
39071,0.044,-0.027,9.866,0.00,0.00,0.00,100.22,-0.046,0.080,-9.438
39081,0.037,-0.047,9.836,0.00,0.00,0.00,100.22,-0.063,0.115,-9.443
39091,0.040,-0.032,9.854,0.00,0.00,0.00,100.22,-0.044,0.102,-9.409
39101,0.031,-0.041,9.834,0.00,0.00,0.00,100.22,-0.019,0.068,-9.460
39111,0.052,-0.041,9.812,0.00,0.00,0.00,100.22,-0.019,0.085,-9.384
39121,0.062,-0.041,9.808,0.00,0.00,0.00,100.22,-0.002,0.063,-9.402
39132,0.055,-0.041,9.840,0.00,0.00,0.00,100.22,-0.044,0.049,-9.382
39142,0.059,-0.041,9.859,0.00,0.00,0.00,100.22,0.000,0.085,-9.436
39152,0.054,-0.044,9.872,0.00,0.00,0.00,100.22,-0.022,0.088,-9.424
39162,0.053,-0.048,9.819,0.00,0.00,0.00,100.22,-0.026,0.058,-9.416
39172,0.049,-0.062,9.801,0.00,0.00,0.00,100.22,0.007,0.075,-9.357
39182,0.048,-0.057,9.820,0.00,0.00,0.00,100.22,0.012,0.075,-9.348
39192,0.035,-0.062,9.844,0.00,0.00,0.00,100.22,-0.012,0.122,-9.451
39202,0.036,-0.068,9.850,0.00,0.00,0.00,100.22,-0.026,0.075,-9.438
39212,0.038,-0.052,9.832,0.00,0.00,0.00,100.22,-0.002,0.090,-9.424
39222,0.050,-0.055,9.830,0.00,0.00,0.00,100.22,0.031,0.120,-9.416
39233,0.067,-0.049,9.828,0.00,0.00,0.00,100.22,-0.024,0.044,-9.404
39243,0.056,-0.051,9.826,0.00,0.00,0.00,100.22,-0.009,0.078,-9.414
39253,0.054,-0.040,9.848,0.00,0.00,0.00,100.22,-0.019,0.026,-9.451
39263,0.059,-0.038,9.863,0.00,0.00,0.00,100.22,-0.014,0.058,-9.470
39283,0.049,-0.055,9.826,0.00,0.00,0.00,100.22,0.000,0.024,-9.438
39293,0.051,-0.047,9.811,0.00,0.00,0.00,100.22,-0.002,0.068,-9.379
39303,0.045,-0.041,9.841,0.00,0.00,0.00,100.22,-0.002,0.063,-9.384
39313,0.046,-0.038,9.853,0.00,0.00,0.00,100.22,0.022,0.066,-9.414
39323,0.044,-0.035,9.845,0.00,0.00,0.00,100.22,-0.022,0.083,-9.421
39335,0.036,-0.033,9.833,0.00,0.00,0.00,100.22,-0.063,0.080,-9.446
39345,0.038,-0.032,9.856,0.00,0.00,0.00,100.22,0.004,0.068,-9.399
39355,0.045,-0.025,9.864,0.00,0.00,0.00,100.22,-0.019,0.017,-9.419
39365,0.037,-0.023,9.853,0.00,0.00,0.00,100.22,-0.046,0.105,-9.463
39375,0.046,-0.034,9.854,0.00,0.00,0.00,100.22,-0.073,0.066,-9.460
39385,0.044,-0.032,9.859,0.00,0.00,0.00,100.22,-0.031,0.051,-9.482
39395,0.062,-0.037,9.845,0.00,0.00,0.00,100.22,-0.039,0.034,-9.389
39405,0.036,-0.036,9.812,0.00,0.00,0.00,100.22,-0.004,0.026,-9.372
39415,0.043,-0.058,9.839,0.00,0.00,0.00,100.22,-0.039,0.029,-9.416
39425,0.043,-0.062,9.853,0.00,0.00,0.00,100.22,-0.014,0.105,-9.465
39437,0.055,-0.064,9.864,0.00,0.00,0.00,100.22,0.000,0.085,-9.414
39447,0.055,-0.062,9.832,0.00,0.00,0.00,100.22,0.014,0.049,-9.441
39457,0.049,-0.064,9.784,0.00,0.00,0.00,100.22,-0.024,0.073,-9.370
39467,0.042,-0.045,9.814,0.00,0.00,0.00,100.22,0.007,0.056,-9.370
39477,0.026,-0.055,9.786,0.00,0.00,0.00,100.22,0.014,0.049,-9.367
39497,0.036,-0.057,9.926,0.00,0.00,0.00,100.22,-0.024,0.085,-9.593
39507,0.076,-0.046,10.047,0.00,0.00,0.00,100.22,-0.022,0.053,-9.578
39517,0.082,-0.032,9.878,0.00,0.00,0.00,100.22,-0.022,0.073,-9.379
39527,0.076,-0.025,9.663,0.00,0.00,0.00,100.22,-0.051,0.073,-9.264
39537,0.065,-0.022,9.687,0.00,0.00,0.00,100.22,-0.058,0.078,-9.338
39547,0.035,-0.019,9.905,0.00,0.00,0.00,100.22,-0.044,0.110,-9.534
39557,0.004,-0.002,10.050,0.00,0.00,0.00,100.22,-0.063,0.115,-9.610
39567,0.016,0.017,9.972,0.00,0.00,0.00,100.22,-0.115,0.129,-9.519
39577,0.052,-0.002,9.842,0.00,0.00,0.00,100.22,-0.068,0.080,-9.419
39587,0.073,-0.029,9.751,0.00,0.00,0.00,100.22,-0.049,0.056,-9.362
39597,0.071,-0.040,9.735,0.00,0.00,0.00,100.22,-0.036,0.024,-9.328
39607,0.047,-0.034,9.809,0.00,0.00,0.00,100.22,-0.024,0.090,-9.419
39617,0.016,-0.049,9.953,0.00,0.00,0.00,100.22,-0.017,0.134,-9.568
39627,0.007,-0.036,9.970,0.00,0.00,0.00,100.22,-0.007,0.068,-9.512
39638,0.013,-0.060,9.827,0.00,0.00,0.00,100.22,-0.017,0.080,-9.392
39648,0.049,-0.070,9.684,0.00,0.00,0.00,100.22,0.009,0.100,-9.286
39658,0.074,-0.072,9.721,0.00,0.00,0.00,100.22,0.004,0.056,-9.328
39668,0.063,-0.058,9.873,0.00,0.00,0.00,100.22,-0.004,0.080,-9.470
39678,0.040,-0.041,9.944,0.00,0.00,0.00,100.22,-0.039,0.117,-9.492
39688,0.037,-0.040,9.911,0.00,0.00,0.00,100.22,-0.024,0.095,-9.502
39708,0.060,-0.008,9.829,0.00,0.00,0.00,100.22,-0.061,0.115,-9.426
39718,0.059,-0.014,9.866,0.00,0.00,0.00,100.22,-0.022,0.085,-9.409
39728,0.047,-0.038,9.882,0.00,0.00,0.00,100.22,-0.004,0.051,-9.502
39740,0.035,-0.061,9.839,0.00,0.00,0.00,100.22,0.009,0.068,-9.428
39750,0.032,-0.068,9.830,0.00,0.00,0.00,100.22,-0.051,0.075,-9.382
39760,0.020,-0.035,9.809,0.00,0.00,0.00,100.22,0.004,0.088,-9.389
39770,0.033,-0.024,9.823,0.00,0.00,0.00,100.22,-0.068,0.117,-9.404
39780,0.043,-0.017,9.868,0.00,0.00,0.00,100.22,-0.031,0.073,-9.431
39790,0.031,-0.040,9.905,0.00,0.00,0.00,100.22,-0.049,0.066,-9.465
39800,0.026,-0.026,9.907,0.00,0.00,0.00,100.22,-0.019,0.098,-9.468
39810,0.041,-0.028,9.836,0.00,0.00,0.00,100.22,-0.041,0.093,-9.428
39820,0.053,-0.029,9.806,0.00,0.00,0.00,100.22,-0.036,0.073,-9.394
39830,0.064,-0.014,9.807,0.00,0.00,0.00,100.22,-0.024,0.073,-9.399
39841,0.050,-0.025,9.853,0.00,0.00,0.00,100.22,-0.022,0.100,-9.426
39851,0.037,-0.042,9.865,0.00,0.00,0.00,100.22,-0.002,0.080,-9.448
39861,0.029,-0.063,9.869,0.00,0.00,0.00,100.22,-0.026,0.098,-9.428
39871,0.038,-0.065,9.845,0.00,0.00,0.00,100.22,0.024,0.046,-9.389
39881,0.050,-0.056,9.822,0.00,0.00,0.00,100.22,0.004,0.036,-9.394
39891,0.069,-0.052,9.813,0.00,0.00,0.00,100.22,-0.031,0.088,-9.389
39901,0.057,-0.016,9.827,0.00,0.00,0.00,100.22,-0.058,0.044,-9.448
39921,0.031,-0.008,9.925,0.00,0.00,0.00,100.22,-0.044,0.075,-9.512
39931,0.038,-0.002,9.906,0.00,0.00,0.00,100.22,-0.029,0.100,-9.519
39942,0.052,-0.039,9.823,0.00,0.00,0.00,100.22,-0.039,0.110,-9.416
39952,0.061,-0.044,9.786,0.00,0.00,0.00,100.22,-0.080,0.095,-9.379
39962,0.058,-0.055,9.841,0.00,0.00,0.00,100.22,-0.039,0.058,-9.394
39972,0.037,-0.055,9.842,0.00,0.00,0.00,100.22,-0.022,0.024,-9.431
39982,0.038,-0.056,9.842,0.00,0.00,0.00,100.22,-0.063,0.051,-9.446
39992,0.017,-0.054,9.863,0.00,0.00,0.00,100.22,-0.012,0.110,-9.458
40002,0.047,-0.048,9.850,0.00,0.00,0.00,100.22,-0.022,0.095,-9.428
40012,0.039,-0.034,9.814,0.00,0.00,0.00,100.22,-0.014,0.127,-9.451
40022,0.049,-0.010,9.827,0.00,0.00,0.00,100.22,-0.041,0.088,-9.438
40032,0.056,-0.022,9.848,0.00,0.00,0.00,100.22,-0.017,0.061,-9.411
40044,0.055,-0.011,9.879,0.00,0.00,0.00,100.22,-0.053,0.012,-9.443
40054,0.059,-0.004,9.889,0.00,0.00,0.00,100.22,-0.046,0.107,-9.495
40064,0.057,-0.008,9.822,0.00,0.00,0.00,100.22,-0.078,0.044,-9.421
40074,0.052,-0.037,9.808,0.00,0.00,0.00,100.22,-0.022,0.068,-9.377
40084,0.053,-0.046,9.872,0.00,0.00,0.00,100.22,-0.071,0.071,-9.424
40094,0.054,-0.047,9.881,0.00,0.00,0.00,100.22,-0.014,0.083,-9.443
40104,0.038,-0.070,9.853,0.00,0.00,0.00,100.22,0.078,0.066,-9.465
40114,0.050,-0.062,9.832,0.00,0.00,0.00,100.22,0.002,0.066,-9.441
40124,0.046,-0.062,9.829,0.00,0.00,0.00,100.22,-0.019,0.078,-9.431
40145,0.047,-0.028,9.826,0.00,0.00,0.00,100.22,-0.036,0.112,-9.426
40155,0.044,-0.023,9.836,0.00,0.00,0.00,100.22,-0.039,0.058,-9.409
40165,0.031,-0.028,9.854,0.00,0.00,0.00,100.22,-0.049,0.110,-9.482
40175,0.055,-0.037,9.842,0.00,0.00,0.00,100.22,-0.044,0.102,-9.428
40185,0.062,-0.037,9.825,0.00,0.00,0.00,100.22,-0.063,0.073,-9.397
40195,0.064,-0.034,9.848,0.00,0.00,0.00,100.22,-0.022,0.063,-9.433
40205,0.059,-0.047,9.884,0.00,0.00,0.00,100.22,-0.046,0.066,-9.436
40215,0.048,-0.033,9.871,0.00,0.00,0.00,100.22,-0.041,0.083,-9.478
40225,0.046,-0.042,9.831,0.00,0.00,0.00,100.22,-0.017,0.075,-9.431
40235,0.046,-0.022,9.844,0.00,0.00,0.00,100.22,-0.061,0.073,-9.428
40246,0.034,-0.010,9.848,0.00,0.00,0.00,100.22,-0.049,0.083,-9.451
40256,0.031,-0.011,9.857,0.00,0.00,0.00,100.22,-0.085,0.100,-9.428
40266,0.048,-0.024,9.871,0.00,0.00,0.00,100.22,-0.026,0.122,-9.453
40276,0.052,-0.020,9.860,0.00,0.00,0.00,100.22,-0.049,0.080,-9.458
40286,0.055,-0.024,9.859,0.00,0.00,0.00,100.22,-0.026,0.102,-9.478
40296,0.069,-0.036,9.841,0.00,0.00,0.00,100.22,-0.026,0.061,-9.438
40306,0.062,-0.029,9.840,0.00,0.00,0.00,100.22,-0.046,0.034,-9.431
40316,0.035,-0.029,9.823,0.00,0.00,0.00,100.22,-0.036,0.044,-9.421
40326,0.028,-0.038,9.836,0.00,0.00,0.00,100.22,-0.019,0.075,-9.404
40336,0.033,-0.062,9.866,0.00,0.00,0.00,100.22,-0.002,0.071,-9.426
40357,0.058,-0.045,9.829,0.00,0.00,0.00,100.22,0.002,0.083,-9.421
40367,0.050,-0.032,9.850,0.00,0.00,0.00,100.22,-0.012,0.071,-9.392
40377,0.034,-0.035,9.854,0.00,0.00,0.00,100.22,-0.051,0.115,-9.455
40387,0.026,-0.032,9.849,0.00,0.00,0.00,100.22,-0.053,0.061,-9.475
40397,0.052,-0.023,9.814,0.00,0.00,0.00,100.22,-0.012,0.078,-9.438
40407,0.058,-0.032,9.856,0.00,0.00,0.00,100.22,-0.044,0.075,-9.460
40417,0.061,-0.023,9.875,0.00,0.00,0.00,100.22,-0.029,0.073,-9.453
40427,0.069,-0.046,9.851,0.00,0.00,0.00,100.22,-0.012,0.053,-9.453
40437,0.068,-0.032,9.857,0.00,0.00,0.00,100.22,-0.029,0.085,-9.409
40450,0.055,-0.025,9.847,0.00,0.00,0.00,100.22,-0.093,0.075,-9.399
40460,0.049,-0.032,9.855,0.00,0.00,0.00,100.22,-0.044,0.090,-9.438
40470,0.043,-0.031,9.851,0.00,0.00,0.00,100.22,-0.039,0.075,-9.389
40480,0.047,-0.030,9.841,0.00,0.00,0.00,100.22,-0.036,0.034,-9.419
40490,0.033,-0.010,9.832,0.00,0.00,0.00,100.22,-0.031,0.105,-9.419
40500,0.022,-0.040,9.862,0.00,0.00,0.00,100.22,-0.053,0.090,-9.451
40510,0.034,-0.042,9.856,0.00,0.00,0.00,100.22,-0.041,0.066,-9.406
40520,0.040,-0.029,9.846,0.00,0.00,0.00,100.22,-0.022,0.056,-9.421
40530,0.046,-0.029,9.856,0.00,0.00,0.00,100.22,-0.029,0.046,-9.495
40540,0.048,-0.035,9.845,0.00,0.00,0.00,100.22,-0.034,0.090,-9.433
40550,0.062,-0.051,9.844,0.00,0.00,0.00,100.22,-0.063,0.068,-9.441
40570,0.052,-0.047,9.856,0.00,0.00,0.00,100.22,-0.041,0.088,-9.453
40580,0.058,-0.038,9.863,0.00,0.00,0.00,100.22,0.026,0.049,-9.428
40590,0.053,-0.034,9.846,0.00,0.00,0.00,100.22,-0.051,0.095,-9.419
40600,0.043,-0.032,9.826,0.00,0.00,0.00,100.22,-0.068,0.066,-9.406
40610,0.047,-0.029,9.844,0.00,0.00,0.00,100.22,-0.053,0.112,-9.416
40620,0.036,-0.034,9.861,0.00,0.00,0.00,100.22,-0.051,0.088,-9.431
40630,0.032,-0.026,9.863,0.00,0.00,0.00,100.22,-0.046,0.075,-9.414
40640,0.029,-0.023,9.851,0.00,0.00,0.00,100.22,-0.036,0.115,-9.453
40651,0.039,-0.044,9.827,0.00,0.00,0.00,100.22,-0.073,0.073,-9.431
40661,0.059,-0.047,9.834,0.00,0.00,0.00,100.22,-0.088,0.095,-9.394
40671,0.062,-0.045,9.845,0.00,0.00,0.00,100.22,-0.012,0.073,-9.441
40681,0.051,-0.054,9.848,0.00,0.00,0.00,100.22,-0.031,0.115,-9.441
40691,0.037,-0.042,9.865,0.00,0.00,0.00,100.22,-0.044,0.063,-9.426
40701,0.019,-0.031,9.850,0.00,0.00,0.00,100.22,-0.039,0.073,-9.455
40711,0.040,-0.026,9.853,0.00,0.00,0.00,100.22,-0.009,0.083,-9.416
40721,0.058,-0.033,9.839,0.00,0.00,0.00,100.22,-0.046,0.075,-9.460
40731,0.061,-0.020,9.849,0.00,0.00,0.00,100.22,-0.049,0.080,-9.431
40741,0.056,-0.031,9.886,0.00,0.00,0.00,100.22,-0.007,0.058,-9.458
40752,0.047,-0.039,9.857,0.00,0.00,0.00,100.22,-0.002,0.058,-9.455
40762,0.052,-0.022,9.844,0.00,0.00,0.00,100.22,-0.049,0.112,-9.421
40782,0.046,-0.048,9.827,0.00,0.00,0.00,100.22,-0.024,0.083,-9.409
40792,0.035,-0.046,9.850,0.00,0.00,0.00,100.22,-0.019,0.129,-9.443
40802,0.035,-0.045,9.872,0.00,0.00,0.00,100.22,-0.056,0.144,-9.424
40812,0.040,-0.057,9.849,0.00,0.00,0.00,100.22,-0.019,0.085,-9.451
40822,0.043,-0.035,9.826,0.00,0.00,0.00,100.22,-0.034,0.034,-9.421
40832,0.044,-0.043,9.829,0.00,0.00,0.00,100.22,-0.009,0.080,-9.402
40842,0.047,-0.044,9.848,0.00,0.00,0.00,100.22,-0.056,0.098,-9.399
40854,0.053,-0.025,9.869,0.00,0.00,0.00,100.22,-0.014,0.085,-9.451
40864,0.050,-0.031,9.857,0.00,0.00,0.00,100.22,-0.036,0.102,-9.470
40874,0.038,-0.023,9.848,0.00,0.00,0.00,100.22,-0.053,0.120,-9.463
40884,0.038,-0.026,9.840,0.00,0.00,0.00,100.22,-0.078,0.078,-9.406
40894,0.056,-0.004,9.842,0.00,0.00,0.00,100.22,-0.056,0.090,-9.428
40904,0.031,-0.014,9.855,0.00,0.00,0.00,100.22,-0.063,0.066,-9.419
40914,0.046,-0.037,9.863,0.00,0.00,0.00,100.22,-0.046,0.100,-9.433
40924,0.047,-0.034,9.862,0.00,0.00,0.00,100.22,0.019,0.100,-9.451
40934,0.041,-0.047,9.857,0.00,0.00,0.00,100.22,-0.002,0.110,-9.426
40944,0.059,-0.055,9.848,0.00,0.00,0.00,100.22,-0.019,0.058,-9.421
40955,0.074,-0.038,9.838,0.00,0.00,0.00,100.22,-0.024,0.063,-9.397
40965,0.047,-0.035,9.848,0.00,0.00,0.00,100.22,-0.066,0.041,-9.426
40975,0.047,-0.032,9.857,0.00,0.00,0.00,100.22,-0.071,0.093,-9.431
40995,0.028,-0.028,9.833,0.00,0.00,0.00,100.22,-0.034,0.078,-9.404
41005,0.032,-0.033,9.833,0.00,0.00,0.00,100.22,-0.031,0.039,-9.455
41015,0.044,-0.043,9.839,0.00,0.00,0.00,100.22,-0.022,0.088,-9.431
41025,0.030,-0.052,9.857,0.00,0.00,0.00,100.22,0.002,0.044,-9.379
41035,0.048,-0.059,9.847,0.00,0.00,0.00,100.22,-0.029,0.105,-9.431
41045,0.052,-0.044,9.849,0.00,0.00,0.00,100.22,0.007,0.053,-9.397
41056,0.047,-0.037,9.848,0.00,0.00,0.00,100.22,-0.026,0.049,-9.448
41066,0.047,-0.029,9.843,0.00,0.00,0.00,100.22,-0.009,0.100,-9.465
41076,0.048,-0.027,9.854,0.00,0.00,0.00,100.22,-0.024,0.115,-9.455
41086,0.053,-0.016,9.868,0.00,0.00,0.00,100.22,-0.056,0.056,-9.414
41096,0.061,-0.016,9.851,0.00,0.00,0.00,100.22,-0.071,0.100,-9.478
41106,0.054,-0.025,9.855,0.00,0.00,0.00,100.22,-0.041,0.105,-9.460
41116,0.049,-0.027,9.850,0.00,0.00,0.00,100.22,-0.046,0.046,-9.394
41126,0.051,-0.043,9.847,0.00,0.00,0.00,100.22,-0.004,0.071,-9.424
41136,0.050,-0.040,9.852,0.00,0.00,0.00,100.22,-0.022,0.041,-9.458
41146,0.025,-0.028,9.856,0.00,0.00,0.00,100.22,-0.022,0.083,-9.460
41158,0.028,-0.037,9.834,0.00,0.00,0.00,100.22,-0.026,0.102,-9.441
41168,0.038,-0.030,9.839,0.00,0.00,0.00,100.22,-0.012,0.063,-9.414
41178,0.051,-0.037,9.833,0.00,0.00,0.00,100.22,0.012,0.102,-9.411
41188,0.041,-0.038,9.821,0.00,0.00,0.00,100.22,-0.012,0.115,-9.372
41198,0.041,-0.026,9.854,0.00,0.00,0.00,100.22,-0.034,0.053,-9.387
41218,0.047,-0.025,9.845,0.00,0.00,0.00,100.22,-0.044,0.105,-9.436
41228,0.053,-0.047,9.806,0.00,0.00,0.00,100.22,-0.024,0.061,-9.478
41238,0.062,-0.038,9.811,0.00,0.00,0.00,100.22,-0.031,0.075,-9.411
41248,0.062,-0.035,9.850,0.00,0.00,0.00,100.22,-0.007,0.068,-9.419
41259,0.057,-0.034,9.840,0.00,0.00,0.00,100.22,-0.034,0.083,-9.416
41269,0.055,-0.041,9.866,0.00,0.00,0.00,100.22,-0.053,0.073,-9.487
41279,0.043,-0.038,9.861,0.00,0.00,0.00,100.22,-0.066,0.090,-9.463
41289,0.049,-0.025,9.827,0.00,0.00,0.00,100.22,-0.022,0.080,-9.446
41299,0.041,-0.034,9.820,0.00,0.00,0.00,100.22,-0.024,0.112,-9.409
41309,0.041,-0.023,9.843,0.00,0.00,0.00,100.22,-0.017,0.075,-9.433
41319,0.035,-0.010,9.871,0.00,0.00,0.00,100.22,-0.039,0.117,-9.460
41329,0.026,-0.025,9.855,0.00,0.00,0.00,100.22,-0.022,0.078,-9.424
41339,0.052,-0.020,9.828,0.00,0.00,0.00,100.22,-0.063,0.102,-9.441
41349,0.062,-0.020,9.827,0.00,0.00,0.00,100.22,-0.044,0.063,-9.384
41360,0.040,-0.043,9.856,0.00,0.00,0.00,100.22,-0.019,0.098,-9.438
41370,0.043,-0.050,9.859,0.00,0.00,0.00,100.22,-0.012,0.093,-9.441
41380,0.050,-0.044,9.867,0.00,0.00,0.00,100.22,0.007,0.093,-9.431
41390,0.040,-0.067,9.848,0.00,0.00,0.00,100.22,-0.029,0.080,-9.414
41400,0.043,-0.044,9.839,0.00,0.00,0.00,100.22,-0.024,0.039,-9.455
41410,0.058,-0.031,9.827,0.00,0.00,0.00,100.22,-0.039,0.088,-9.428
41430,0.035,-0.015,9.856,0.00,0.00,0.00,100.22,-0.034,0.071,-9.446
41440,0.043,-0.037,9.815,0.00,0.00,0.00,100.22,-0.061,0.075,-9.451
41450,0.031,-0.038,9.797,0.00,0.00,0.00,100.22,-0.051,0.090,-9.348
41462,0.032,-0.040,9.892,0.00,0.00,0.00,100.22,-0.041,0.083,-9.431
41472,0.055,-0.055,9.941,0.00,0.00,0.00,100.22,-0.049,0.073,-9.492
41482,0.072,-0.054,9.842,0.00,0.00,0.00,100.22,-0.046,0.083,-9.453
41492,0.047,-0.038,9.805,0.00,0.00,0.00,100.22,-0.041,0.049,-9.379
41502,0.042,-0.038,9.821,0.00,0.00,0.00,100.22,-0.014,0.044,-9.414
41512,0.057,-0.049,9.856,0.00,0.00,0.00,100.22,0.007,0.061,-9.421
41522,0.056,-0.038,9.860,0.00,0.00,0.00,100.22,-0.024,0.078,-9.473
41532,0.036,-0.022,9.863,0.00,0.00,0.00,100.22,-0.051,0.056,-9.473
41542,0.031,-0.029,9.869,0.00,0.00,0.00,100.22,-0.061,0.095,-9.411
41552,0.046,-0.041,9.827,0.00,0.00,0.00,100.22,-0.051,0.041,-9.379
41564,0.031,-0.025,9.815,0.00,0.00,0.00,100.22,-0.061,0.107,-9.375
41574,0.040,-0.032,9.844,0.00,0.00,0.00,100.22,0.002,0.107,-9.384
41584,0.046,-0.029,9.887,0.00,0.00,0.00,100.22,-0.014,0.049,-9.468
41594,0.055,-0.027,9.853,0.00,0.00,0.00,100.22,-0.058,0.112,-9.480
41604,0.061,-0.029,9.851,0.00,0.00,0.00,100.22,-0.002,0.068,-9.379
41614,0.053,-0.043,9.830,0.00,0.00,0.00,100.22,0.000,0.083,-9.402
41624,0.077,-0.051,9.840,0.00,0.00,0.00,100.22,-0.036,0.056,-9.438
41644,0.037,-0.037,9.873,0.00,0.00,0.00,100.22,-0.044,0.068,-9.458
41654,0.044,-0.038,9.870,0.00,0.00,0.00,100.22,-0.029,0.088,-9.446
41665,0.039,-0.029,9.851,0.00,0.00,0.00,100.22,-0.058,0.066,-9.414
41675,0.035,-0.013,9.832,0.00,0.00,0.00,100.22,-0.056,0.098,-9.465
41685,0.032,-0.022,9.847,0.00,0.00,0.00,100.22,-0.063,0.098,-9.455
41695,0.049,-0.047,9.862,0.00,0.00,0.00,100.22,0.000,0.085,-9.446
41705,0.042,-0.044,9.855,0.00,0.00,0.00,100.22,-0.031,0.117,-9.428
41715,0.059,-0.050,9.846,0.00,0.00,0.00,100.22,-0.046,0.102,-9.421
41725,0.055,-0.040,9.837,0.00,0.00,0.00,100.22,-0.002,0.085,-9.416
41735,0.047,-0.041,9.841,0.00,0.00,0.00,100.22,-0.036,0.080,-9.446
41745,0.050,-0.032,9.875,0.00,0.00,0.00,100.22,-0.017,0.063,-9.465
41755,0.060,-0.017,9.856,0.00,0.00,0.00,100.22,-0.061,0.085,-9.419
41765,0.061,-0.028,9.831,0.00,0.00,0.00,100.22,-0.031,0.120,-9.379
41775,0.058,-0.033,9.777,0.00,0.00,0.00,100.22,-0.041,0.110,-9.362
41785,0.030,-0.029,9.866,0.00,0.00,0.00,100.22,-0.034,0.117,-9.482
41795,0.041,-0.018,9.932,0.00,0.00,0.00,100.22,-0.034,0.063,-9.502
41805,0.050,-0.012,9.897,0.00,0.00,0.00,100.22,-0.078,0.085,-9.460
41815,0.041,-0.029,9.791,0.00,0.00,0.00,100.22,-0.044,0.068,-9.387
41825,0.035,-0.038,9.788,0.00,0.00,0.00,100.22,-0.075,0.063,-9.387
41835,0.041,-0.052,9.829,0.00,0.00,0.00,100.22,-0.073,0.088,-9.399
41855,0.060,-0.040,9.889,0.00,0.00,0.00,100.22,0.041,0.063,-9.478
41867,0.066,-0.052,9.878,0.00,0.00,0.00,100.22,-0.022,0.071,-9.438
41877,0.049,-0.049,9.842,0.00,0.00,0.00,100.22,-0.031,0.098,-9.411
41887,0.057,-0.037,9.799,0.00,0.00,0.00,100.22,-0.078,0.110,-9.372
41897,0.046,-0.031,9.816,0.00,0.00,0.00,100.22,-0.088,0.093,-9.424
41907,0.043,-0.028,9.859,0.00,0.00,0.00,100.22,-0.063,0.095,-9.458
41917,0.023,-0.034,9.885,0.00,0.00,0.00,100.22,-0.036,0.071,-9.458
41927,0.043,-0.031,9.839,0.00,0.00,0.00,100.22,-0.031,0.073,-9.436
41937,0.042,-0.028,9.827,0.00,0.00,0.00,100.22,-0.063,0.095,-9.446
41947,0.053,-0.049,9.820,0.00,0.00,0.00,100.22,0.002,0.075,-9.428
41957,0.059,-0.059,9.847,0.00,0.00,0.00,100.22,-0.039,0.093,-9.419
41968,0.036,-0.032,9.874,0.00,0.00,0.00,100.22,-0.019,0.085,-9.475
41978,0.052,-0.032,9.849,0.00,0.00,0.00,100.22,-0.019,0.088,-9.451
41988,0.056,-0.032,9.842,0.00,0.00,0.00,100.22,-0.049,0.095,-9.441
41998,0.053,-0.019,9.842,0.00,0.00,0.00,100.22,-0.044,0.071,-9.428
42008,0.043,-0.019,9.831,0.00,0.00,0.00,100.22,-0.068,0.093,-9.421
42018,0.044,-0.028,9.830,0.00,0.00,0.00,100.22,-0.063,0.132,-9.433
42028,0.047,-0.055,9.853,0.00,0.00,0.00,100.22,-0.007,0.100,-9.453
42038,0.024,-0.049,9.855,0.00,0.00,0.00,100.22,-0.034,0.053,-9.436
42048,0.041,-0.047,9.841,0.00,0.00,0.00,100.22,-0.044,0.080,-9.414
42069,0.033,-0.019,9.838,0.00,0.00,0.00,100.22,-0.031,0.049,-9.455
42079,0.052,-0.038,9.848,0.00,0.00,0.00,100.22,-0.066,0.112,-9.448
42089,0.051,-0.040,9.858,0.00,0.00,0.00,100.22,-0.041,0.063,-9.426
42099,0.047,-0.034,9.829,0.00,0.00,0.00,100.22,-0.034,0.102,-9.421
42109,0.060,-0.025,9.831,0.00,0.00,0.00,100.22,-0.004,0.100,-9.372
42119,0.052,-0.025,9.843,0.00,0.00,0.00,100.22,-0.058,0.095,-9.389
42129,0.055,-0.027,9.849,0.00,0.00,0.00,100.22,-0.036,0.071,-9.441
42139,0.044,-0.017,9.851,0.00,0.00,0.00,100.22,0.000,0.080,-9.443
42149,0.035,-0.033,9.861,0.00,0.00,0.00,100.22,-0.049,0.105,-9.441
42159,0.034,-0.034,9.853,0.00,0.00,0.00,100.22,-0.012,0.063,-9.460
42170,0.044,-0.028,9.842,0.00,0.00,0.00,100.22,-0.063,0.095,-9.399
42180,0.040,-0.034,9.837,0.00,0.00,0.00,100.22,-0.031,0.080,-9.421
42190,0.064,-0.036,9.842,0.00,0.00,0.00,100.22,-0.075,0.083,-9.438
42200,0.046,-0.041,9.861,0.00,0.00,0.00,100.22,-0.041,0.075,-9.455
42210,0.040,-0.029,9.868,0.00,0.00,0.00,100.22,-0.098,0.085,-9.424
42220,0.042,-0.034,9.852,0.00,0.00,0.00,100.22,-0.029,0.066,-9.416
42230,0.044,-0.025,9.844,0.00,0.00,0.00,100.22,-0.044,0.071,-9.411
42240,0.048,-0.031,9.832,0.00,0.00,0.00,100.22,-0.039,0.083,-9.419
42250,0.040,-0.026,9.842,0.00,0.00,0.00,100.22,-0.034,0.075,-9.409
42272,0.038,-0.032,9.860,0.00,0.00,0.00,100.22,-0.026,0.075,-9.441
42282,0.046,-0.029,9.859,0.00,0.00,0.00,100.22,-0.022,0.085,-9.453
42292,0.049,-0.037,9.833,0.00,0.00,0.00,100.22,-0.009,0.085,-9.424
42302,0.049,-0.021,9.832,0.00,0.00,0.00,100.22,-0.039,0.058,-9.404
42312,0.050,-0.041,9.834,0.00,0.00,0.00,100.22,-0.026,0.051,-9.451
42322,0.056,-0.043,9.857,0.00,0.00,0.00,100.22,-0.004,0.083,-9.404
42332,0.044,-0.028,9.862,0.00,0.00,0.00,100.22,-0.014,0.034,-9.448
42342,0.038,-0.019,9.851,0.00,0.00,0.00,100.22,-0.046,0.068,-9.441
42352,0.052,-0.045,9.841,0.00,0.00,0.00,100.22,-0.049,0.085,-9.406
42362,0.041,-0.032,9.841,0.00,0.00,0.00,100.22,-0.029,0.088,-9.433
42373,0.052,-0.038,9.853,0.00,0.00,0.00,100.22,-0.041,0.073,-9.414
42383,0.046,-0.027,9.843,0.00,0.00,0.00,100.22,-0.031,0.058,-9.463
42393,0.031,-0.039,9.840,0.00,0.00,0.00,100.22,-0.024,0.053,-9.438
42403,0.045,-0.037,9.856,0.00,0.00,0.00,100.22,-0.031,0.125,-9.411
42413,0.052,-0.041,9.843,0.00,0.00,0.00,100.22,-0.022,0.085,-9.365
42423,0.056,-0.042,9.837,0.00,0.00,0.00,100.22,-0.031,0.127,-9.409
42433,0.058,-0.037,9.850,0.00,0.00,0.00,100.22,-0.049,0.026,-9.438
42443,0.047,-0.026,9.853,0.00,0.00,0.00,100.22,-0.102,0.071,-9.463
42453,0.058,-0.026,9.853,0.00,0.00,0.00,100.22,-0.061,0.093,-9.438
42474,0.040,-0.041,9.856,0.00,0.00,0.00,100.22,-0.073,0.073,-9.411
42484,0.050,-0.030,9.840,0.00,0.00,0.00,100.22,-0.044,0.110,-9.453
42494,0.054,-0.027,9.838,0.00,0.00,0.00,100.22,-0.019,0.105,-9.451
42504,0.044,-0.029,9.847,0.00,0.00,0.00,100.22,-0.014,0.095,-9.441
42514,0.038,-0.041,9.847,0.00,0.00,0.00,100.22,-0.017,0.075,-9.453
42524,0.045,-0.040,9.838,0.00,0.00,0.00,100.22,-0.019,0.078,-9.384
42534,0.050,-0.034,9.848,0.00,0.00,0.00,100.22,-0.026,0.063,-9.436
42544,0.051,-0.041,9.851,0.00,0.00,0.00,100.22,-0.053,0.061,-9.470
42554,0.053,-0.029,9.859,0.00,0.00,0.00,100.22,-0.051,0.041,-9.394
42564,0.055,-0.034,9.847,0.00,0.00,0.00,100.22,-0.034,0.073,-9.397
42578,0.035,-0.058,9.844,0.00,0.00,0.00,100.22,0.007,0.107,-9.399
42588,0.048,-0.036,9.839,0.00,0.00,0.00,100.22,-0.007,0.110,-9.421
42598,0.062,-0.029,9.849,0.00,0.00,0.00,100.22,-0.019,0.061,-9.448
42608,0.049,-0.034,9.850,0.00,0.00,0.00,100.22,-0.046,0.053,-9.460
42618,0.038,-0.029,9.848,0.00,0.00,0.00,100.22,0.004,0.083,-9.465
42628,0.030,-0.037,9.844,0.00,0.00,0.00,100.22,-0.075,0.102,-9.436
42638,0.046,-0.041,9.845,0.00,0.00,0.00,100.22,-0.031,0.125,-9.448
42648,0.040,-0.038,9.845,0.00,0.00,0.00,100.22,-0.014,0.053,-9.463
42658,0.034,-0.032,9.852,0.00,0.00,0.00,100.22,-0.009,0.066,-9.416
42668,0.053,-0.014,9.857,0.00,0.00,0.00,100.22,-0.036,0.090,-9.431
42688,0.050,-0.037,9.859,0.00,0.00,0.00,100.22,-0.046,0.066,-9.455
42698,0.060,-0.030,9.842,0.00,0.00,0.00,100.22,-0.051,0.088,-9.451
42708,0.052,-0.034,9.827,0.00,0.00,0.00,100.22,-0.068,0.034,-9.448
42718,0.037,-0.040,9.849,0.00,0.00,0.00,100.22,-0.039,0.056,-9.419
42728,0.053,-0.046,9.842,0.00,0.00,0.00,100.22,-0.034,0.019,-9.428
42738,0.029,-0.027,9.851,0.00,0.00,0.00,100.22,-0.044,0.122,-9.416
42748,0.038,-0.021,9.849,0.00,0.00,0.00,100.22,-0.041,0.088,-9.458
42758,0.046,-0.040,9.841,0.00,0.00,0.00,100.22,-0.056,0.080,-9.402
42768,0.043,-0.026,9.833,0.00,0.00,0.00,100.22,-0.017,0.112,-9.433
42778,0.034,-0.035,9.840,0.00,0.00,0.00,100.22,-0.022,0.095,-9.441
42788,0.046,-0.026,9.845,0.00,0.00,0.00,100.22,-0.022,0.102,-9.458
42798,0.029,-0.020,9.842,0.00,0.00,0.00,100.22,-0.014,0.063,-9.514
42808,0.041,-0.036,9.852,0.00,0.00,0.00,100.22,-0.056,0.090,-9.473
42818,0.044,-0.028,9.848,0.00,0.00,0.00,100.22,-0.017,0.053,-9.419
42828,0.050,-0.031,9.847,0.00,0.00,0.00,100.22,-0.063,0.080,-9.428
42838,0.037,-0.042,9.835,0.00,0.00,0.00,100.22,-0.026,0.044,-9.424
42848,0.044,-0.044,9.844,0.00,0.00,0.00,100.22,-0.036,0.085,-9.443
42858,0.040,-0.027,9.856,0.00,0.00,0.00,100.22,-0.066,0.058,-9.465
42868,0.033,-0.032,9.836,0.00,0.00,0.00,100.22,-0.046,0.058,-9.416
42890,0.056,-0.030,9.852,0.00,0.00,0.00,100.22,-0.007,0.066,-9.451
42900,0.027,-0.035,9.831,0.00,0.00,0.00,100.22,-0.068,0.095,-9.433
42910,0.032,-0.034,9.844,0.00,0.00,0.00,100.22,-0.056,0.107,-9.451
42920,0.041,-0.040,9.854,0.00,0.00,0.00,100.22,-0.017,0.056,-9.436
42930,0.046,-0.041,9.860,0.00,0.00,0.00,100.22,-0.056,0.110,-9.451
42940,0.044,-0.044,9.853,0.00,0.00,0.00,100.22,-0.073,0.075,-9.436
42950,0.044,-0.025,9.843,0.00,0.00,0.00,100.22,-0.031,0.078,-9.438
42960,0.050,-0.045,9.835,0.00,0.00,0.00,100.22,-0.049,0.080,-9.431
42970,0.038,-0.038,9.836,0.00,0.00,0.00,100.22,-0.029,0.080,-9.441
42981,0.035,-0.034,9.850,0.00,0.00,0.00,100.22,-0.044,0.058,-9.438
42991,0.041,-0.035,9.846,0.00,0.00,0.00,100.22,-0.002,0.083,-9.419
43001,0.053,-0.017,9.848,0.00,0.00,0.00,100.22,-0.029,0.100,-9.419
43011,0.060,-0.046,9.838,0.00,0.00,0.00,100.22,0.009,0.154,-9.414
43021,0.050,-0.038,9.854,0.00,0.00,0.00,100.22,-0.068,0.080,-9.438
43031,0.043,-0.035,9.850,0.00,0.00,0.00,100.22,-0.058,0.085,-9.468
43041,0.038,-0.023,9.855,0.00,0.00,0.00,100.22,0.002,0.102,-9.428
43051,0.043,-0.038,9.842,0.00,0.00,0.00,100.22,-0.012,0.080,-9.424
43061,0.058,-0.042,9.837,0.00,0.00,0.00,100.22,-0.058,0.080,-9.411
43071,0.052,-0.036,9.826,0.00,0.00,0.00,100.22,-0.036,0.085,-9.411
43082,0.038,-0.046,9.842,0.00,0.00,0.00,100.22,-0.031,0.061,-9.441
43102,0.055,-0.031,9.842,0.00,0.00,0.00,100.22,-0.044,0.075,-9.473
43112,0.041,-0.046,9.851,0.00,0.00,0.00,100.22,-0.049,0.068,-9.451
43122,0.037,-0.041,9.838,0.00,0.00,0.00,100.22,-0.056,0.100,-9.414
43132,0.063,-0.034,9.834,0.00,0.00,0.00,100.22,-0.051,0.078,-9.404
43142,0.055,-0.020,9.838,0.00,0.00,0.00,100.22,-0.022,0.078,-9.414
43152,0.043,-0.034,9.859,0.00,0.00,0.00,100.22,-0.002,0.075,-9.433
43162,0.039,-0.053,9.847,0.00,0.00,0.00,100.22,-0.044,0.075,-9.451
43172,0.040,-0.035,9.844,0.00,0.00,0.00,100.22,-0.053,0.049,-9.431
43183,0.054,-0.040,9.850,0.00,0.00,0.00,100.22,-0.036,0.112,-9.397
43193,0.047,-0.034,9.850,0.00,0.00,0.00,100.22,-0.031,0.071,-9.433
43203,0.048,-0.043,9.848,0.00,0.00,0.00,100.22,-0.036,0.090,-9.433
43213,0.058,-0.052,9.838,0.00,0.00,0.00,100.22,-0.029,0.073,-9.441
43223,0.046,-0.044,9.844,0.00,0.00,0.00,100.22,-0.009,0.090,-9.433
43233,0.044,-0.039,9.848,0.00,0.00,0.00,100.22,-0.022,0.083,-9.446
43243,0.039,-0.040,9.834,0.00,0.00,0.00,100.22,-0.012,0.110,-9.411
43253,0.050,-0.041,9.842,0.00,0.00,0.00,100.22,-0.024,0.049,-9.441
43263,0.039,-0.026,9.856,0.00,0.00,0.00,100.22,-0.039,0.102,-9.436
43273,0.056,-0.024,9.862,0.00,0.00,0.00,100.22,-0.024,0.112,-9.475
43285,0.046,-0.017,9.860,0.00,0.00,0.00,100.22,-0.071,0.090,-9.416
43295,0.038,-0.032,9.845,0.00,0.00,0.00,100.22,-0.019,0.066,-9.416
43305,0.046,-0.032,9.842,0.00,0.00,0.00,100.22,-0.036,0.039,-9.428
43325,0.054,-0.037,9.850,0.00,0.00,0.00,100.22,-0.049,0.117,-9.436
43335,0.051,-0.022,9.847,0.00,0.00,0.00,100.22,-0.031,0.068,-9.411
43345,0.036,-0.040,9.864,0.00,0.00,0.00,100.22,-0.053,0.098,-9.414
43355,0.047,-0.041,9.854,0.00,0.00,0.00,100.22,-0.009,0.090,-9.443
43365,0.052,-0.039,9.841,0.00,0.00,0.00,100.22,-0.002,0.066,-9.463
43375,0.039,-0.039,9.841,0.00,0.00,0.00,100.22,-0.039,0.061,-9.460
43386,0.038,-0.030,9.860,0.00,0.00,0.00,100.22,-0.024,0.073,-9.387
43396,0.029,-0.031,9.853,0.00,0.00,0.00,100.22,-0.014,0.085,-9.416
43406,0.034,-0.036,9.857,0.00,0.00,0.00,100.22,-0.002,0.068,-9.394
43416,0.043,-0.029,9.853,0.00,0.00,0.00,100.22,-0.019,0.090,-9.421
43426,0.050,-0.026,9.827,0.00,0.00,0.00,100.22,0.031,0.049,-9.441
43436,0.049,-0.043,9.842,0.00,0.00,0.00,100.22,-0.014,0.100,-9.428
43446,0.047,-0.038,9.847,0.00,0.00,0.00,100.22,-0.058,0.088,-9.431
43456,0.068,-0.040,9.840,0.00,0.00,0.00,100.22,-0.012,0.110,-9.414
43466,0.050,-0.023,9.865,0.00,0.00,0.00,100.22,-0.034,0.085,-9.409
43476,0.035,-0.030,9.845,0.00,0.00,0.00,100.22,-0.041,0.075,-9.443
43487,0.041,-0.027,9.835,0.00,0.00,0.00,100.22,-0.014,0.085,-9.426
43497,0.035,-0.020,9.847,0.00,0.00,0.00,100.22,-0.041,0.026,-9.465
43507,0.037,-0.031,9.838,0.00,0.00,0.00,100.22,-0.029,0.078,-9.382
43517,0.038,-0.032,9.833,0.00,0.00,0.00,100.22,-0.058,0.073,-9.460
43537,0.047,-0.041,9.838,0.00,0.00,0.00,100.22,-0.026,0.107,-9.416
43547,0.049,-0.041,9.838,0.00,0.00,0.00,100.22,-0.026,0.075,-9.424
43557,0.044,-0.043,9.848,0.00,0.00,0.00,100.22,-0.068,0.073,-9.433
43567,0.053,-0.031,9.853,0.00,0.00,0.00,100.22,-0.031,0.102,-9.436
43577,0.052,-0.026,9.851,0.00,0.00,0.00,100.22,-0.041,0.093,-9.404
43590,0.055,-0.039,9.829,0.00,0.00,0.00,100.22,-0.029,0.080,-9.392
43600,0.044,-0.027,9.862,0.00,0.00,0.00,100.22,-0.017,0.098,-9.431
43610,0.042,-0.029,9.854,0.00,0.00,0.00,100.22,-0.041,0.102,-9.424
43620,0.053,-0.040,9.850,0.00,0.00,0.00,100.22,-0.068,0.071,-9.441
43630,0.036,-0.032,9.855,0.00,0.00,0.00,100.22,-0.039,0.090,-9.460
43640,0.039,-0.037,9.843,0.00,0.00,0.00,100.22,-0.041,0.056,-9.414
43650,0.050,-0.047,9.845,0.00,0.00,0.00,100.22,-0.026,0.090,-9.438
43660,0.038,-0.030,9.866,0.00,0.00,0.00,100.22,-0.007,0.100,-9.416
43670,0.045,-0.025,9.852,0.00,0.00,0.00,100.22,-0.046,0.071,-9.458
43680,0.043,-0.037,9.853,0.00,0.00,0.00,100.22,-0.053,0.095,-9.424
43690,0.044,-0.038,9.839,0.00,0.00,0.00,100.22,-0.071,0.061,-9.428
43700,0.059,-0.044,9.844,0.00,0.00,0.00,100.22,-0.056,0.088,-9.500
43710,0.051,-0.043,9.841,0.00,0.00,0.00,100.22,-0.026,0.122,-9.431
43720,0.048,-0.036,9.845,0.00,0.00,0.00,100.22,-0.075,0.093,-9.478
43730,0.035,-0.031,9.843,0.00,0.00,0.00,100.22,-0.051,0.098,-9.451
43740,0.046,-0.031,9.841,0.00,0.00,0.00,100.22,-0.046,0.100,-9.470
43760,0.037,-0.038,9.841,0.00,0.00,0.00,100.22,-0.075,0.036,-9.426
43770,0.043,-0.035,9.842,0.00,0.00,0.00,100.22,-0.019,0.110,-9.416
43780,0.043,-0.041,9.841,0.00,0.00,0.00,100.22,-0.053,0.129,-9.433
43791,0.043,-0.037,9.851,0.00,0.00,0.00,100.22,-0.017,0.056,-9.416
43801,0.046,-0.034,9.849,0.00,0.00,0.00,100.22,-0.061,0.073,-9.433
43811,0.041,-0.028,9.842,0.00,0.00,0.00,100.22,-0.053,0.068,-9.411
43821,0.046,-0.038,9.840,0.00,0.00,0.00,100.22,-0.049,0.034,-9.409
43831,0.050,-0.028,9.850,0.00,0.00,0.00,100.22,-0.046,0.041,-9.438
43841,0.059,-0.029,9.868,0.00,0.00,0.00,100.22,-0.031,0.095,-9.455
43851,0.053,-0.037,9.838,0.00,0.00,0.00,100.22,0.000,0.058,-9.399
43861,0.052,-0.043,9.851,0.00,0.00,0.00,100.22,-0.051,0.090,-9.428
43871,0.042,-0.041,9.850,0.00,0.00,0.00,100.22,-0.024,0.049,-9.431
43881,0.034,-0.026,9.827,0.00,0.00,0.00,100.22,0.022,0.044,-9.399
43892,0.044,-0.037,9.840,0.00,0.00,0.00,100.22,-0.053,0.049,-9.465
43902,0.049,-0.026,9.840,0.00,0.00,0.00,100.22,-0.019,0.068,-9.414
43912,0.039,-0.020,9.834,0.00,0.00,0.00,100.22,-0.014,0.058,-9.463
43922,0.035,-0.034,9.844,0.00,0.00,0.00,100.22,-0.041,0.078,-9.421
43932,0.026,-0.043,9.853,0.00,0.00,0.00,100.22,-0.022,0.073,-9.451
43942,0.031,-0.038,9.854,0.00,0.00,0.00,100.22,-0.004,0.085,-9.419
43952,0.053,-0.026,9.854,0.00,0.00,0.00,100.22,-0.024,0.063,-9.402
43972,0.056,-0.033,9.837,0.00,0.00,0.00,100.22,-0.009,0.093,-9.443
43982,0.047,-0.037,9.839,0.00,0.00,0.00,100.22,-0.053,0.071,-9.431
43993,0.044,-0.043,9.834,0.00,0.00,0.00,100.22,0.007,0.026,-9.402
44003,0.058,-0.040,9.851,0.00,0.00,0.00,100.22,-0.017,0.056,-9.411
44013,0.040,-0.036,9.848,0.00,0.00,0.00,100.22,-0.007,0.093,-9.436
44023,0.030,-0.048,9.844,0.00,0.00,0.00,100.22,-0.053,0.053,-9.433
44033,0.035,-0.039,9.848,0.00,0.00,0.00,100.22,-0.017,0.088,-9.414
44043,0.041,-0.041,9.845,0.00,0.00,0.00,100.22,-0.044,0.061,-9.414
44053,0.052,-0.033,9.847,0.00,0.00,0.00,100.22,-0.056,0.083,-9.404
44063,0.050,-0.033,9.852,0.00,0.00,0.00,100.22,-0.063,0.117,-9.433
44073,0.038,-0.032,9.840,0.00,0.00,0.00,100.22,-0.002,0.080,-9.431
44083,0.053,-0.042,9.850,0.00,0.00,0.00,100.22,-0.019,0.063,-9.428
44095,0.053,-0.036,9.847,0.00,0.00,0.00,100.22,-0.041,0.026,-9.458
44105,0.043,-0.033,9.838,0.00,0.00,0.00,100.22,-0.007,0.129,-9.446
44115,0.056,-0.047,9.839,0.00,0.00,0.00,100.22,0.002,0.051,-9.458
44125,0.041,-0.041,9.851,0.00,0.00,0.00,100.22,-0.017,0.098,-9.414
44135,0.044,-0.028,9.853,0.00,0.00,0.00,100.22,-0.036,0.098,-9.482
44145,0.054,-0.034,9.860,0.00,0.00,0.00,100.22,-0.058,0.063,-9.404
44155,0.071,-0.040,9.834,0.00,0.00,0.00,100.22,-0.034,0.093,-9.441
44165,0.047,-0.028,9.838,0.00,0.00,0.00,100.22,-0.022,0.073,-9.448
44185,0.049,-0.023,9.854,0.00,0.00,0.00,100.22,-0.041,0.080,-9.428
44196,0.044,-0.035,9.851,0.00,0.00,0.00,100.22,-0.044,0.066,-9.433
44206,0.050,-0.044,9.842,0.00,0.00,0.00,100.22,0.034,0.112,-9.468
44216,0.041,-0.043,9.838,0.00,0.00,0.00,100.22,-0.044,0.122,-9.431
44226,0.043,-0.046,9.848,0.00,0.00,0.00,100.22,0.014,0.061,-9.419
44236,0.035,-0.050,9.851,0.00,0.00,0.00,100.22,-0.007,0.127,-9.421
44246,0.047,-0.030,9.845,0.00,0.00,0.00,100.22,-0.053,0.063,-9.436
44256,0.053,-0.040,9.827,0.00,0.00,0.00,100.22,0.019,0.110,-9.406
44266,0.044,-0.028,9.854,0.00,0.00,0.00,100.22,-0.022,0.107,-9.419
44276,0.048,-0.019,9.865,0.00,0.00,0.00,100.22,-0.066,0.093,-9.451
44286,0.040,-0.029,9.854,0.00,0.00,0.00,100.22,-0.075,0.080,-9.470
44297,0.049,-0.038,9.835,0.00,0.00,0.00,100.22,-0.071,0.125,-9.367
44307,0.056,-0.043,9.775,0.00,0.00,0.00,100.22,-0.031,0.078,-9.402
44317,0.049,-0.052,9.849,0.00,0.00,0.00,100.22,-0.046,0.115,-9.419
44327,0.073,-0.050,9.946,0.00,0.00,0.00,100.22,-0.026,0.075,-9.482
44337,0.067,-0.038,9.873,0.00,0.00,0.00,100.22,-0.036,0.071,-9.519
44347,0.071,-0.044,9.767,0.00,0.00,0.00,100.22,-0.034,0.068,-9.389
44357,0.062,-0.052,9.807,0.00,0.00,0.00,100.22,-0.014,0.093,-9.360
44367,0.047,-0.032,9.867,0.00,0.00,0.00,100.22,-0.029,0.080,-9.406
44377,0.037,-0.019,9.866,0.00,0.00,0.00,100.22,-0.068,0.098,-9.514
44387,0.043,-0.015,9.869,0.00,0.00,0.00,100.22,-0.105,0.053,-9.451
44409,0.048,-0.031,9.832,0.00,0.00,0.00,100.22,-0.056,0.117,-9.463
44419,0.058,-0.049,9.811,0.00,0.00,0.00,100.22,-0.026,0.053,-9.375
44429,0.057,-0.040,9.826,0.00,0.00,0.00,100.22,0.017,0.056,-9.375
44439,0.037,-0.034,9.879,0.00,0.00,0.00,100.22,-0.012,0.107,-9.426
44449,0.035,-0.037,9.881,0.00,0.00,0.00,100.22,-0.019,0.056,-9.451
44459,0.052,-0.052,9.827,0.00,0.00,0.00,100.22,-0.014,0.063,-9.424
44469,0.058,-0.052,9.805,0.00,0.00,0.00,100.22,0.009,0.071,-9.424
44479,0.058,-0.022,9.858,0.00,0.00,0.00,100.22,-0.026,0.061,-9.394
44489,0.049,-0.026,9.882,0.00,0.00,0.00,100.22,-0.026,0.034,-9.495
44500,0.056,-0.034,9.856,0.00,0.00,0.00,100.22,-0.044,0.046,-9.426
44510,0.044,-0.028,9.821,0.00,0.00,0.00,100.22,-0.002,0.080,-9.394
44520,0.044,-0.041,9.833,0.00,0.00,0.00,100.22,-0.014,0.083,-9.453
44530,0.045,-0.037,9.867,0.00,0.00,0.00,100.22,-0.044,0.080,-9.411
44540,0.052,-0.031,9.883,0.00,0.00,0.00,100.22,-0.063,0.102,-9.490
44550,0.046,-0.035,9.851,0.00,0.00,0.00,100.22,-0.024,0.051,-9.455
44560,0.055,-0.052,9.839,0.00,0.00,0.00,100.22,-0.014,0.051,-9.443
44570,0.064,-0.048,9.826,0.00,0.00,0.00,100.22,0.000,0.083,-9.333
44580,0.062,-0.028,9.829,0.00,0.00,0.00,100.22,-0.019,0.063,-9.370
44590,0.048,-0.029,9.878,0.00,0.00,0.00,100.22,-0.046,0.080,-9.433
44601,0.034,-0.024,9.885,0.00,0.00,0.00,100.22,-0.044,0.049,-9.426
44621,0.030,-0.032,9.822,0.00,0.00,0.00,100.22,-0.019,0.071,-9.387
44631,0.026,-0.044,9.823,0.00,0.00,0.00,100.22,-0.012,0.068,-9.411
44641,0.041,-0.046,9.827,0.00,0.00,0.00,100.22,0.026,0.063,-9.419
44651,0.050,-0.044,9.891,0.00,0.00,0.00,100.22,-0.044,0.088,-9.460
44661,0.056,-0.039,9.890,0.00,0.00,0.00,100.22,-0.058,0.095,-9.446
44671,0.061,-0.032,9.802,0.00,0.00,0.00,100.22,-0.004,0.071,-9.355
44681,0.037,-0.043,9.799,0.00,0.00,0.00,100.22,-0.007,0.090,-9.372
44691,0.047,-0.043,9.842,0.00,0.00,0.00,100.22,-0.039,0.095,-9.424
44704,0.069,-0.046,9.869,0.00,0.00,0.00,100.22,-0.053,0.071,-9.446
44714,0.055,-0.043,9.872,0.00,0.00,0.00,100.22,-0.036,0.073,-9.451
44724,0.045,-0.044,9.849,0.00,0.00,0.00,100.22,-0.014,0.071,-9.409
44734,0.042,-0.046,9.830,0.00,0.00,0.00,100.22,-0.002,0.105,-9.397
44744,0.031,-0.035,9.831,0.00,0.00,0.00,100.22,-0.012,0.078,-9.438
44754,0.026,-0.034,9.851,0.00,0.00,0.00,100.22,-0.026,0.105,-9.480
44764,0.034,-0.029,9.868,0.00,0.00,0.00,100.22,-0.049,0.066,-9.443
44774,0.045,-0.039,9.862,0.00,0.00,0.00,100.22,-0.044,0.090,-9.416
44784,0.049,-0.029,9.845,0.00,0.00,0.00,100.22,-0.058,0.095,-9.411
44794,0.060,-0.043,9.839,0.00,0.00,0.00,100.22,-0.044,0.078,-9.419
44804,0.065,-0.051,9.850,0.00,0.00,0.00,100.22,-0.068,0.071,-9.443
44814,0.048,-0.040,9.863,0.00,0.00,0.00,100.22,-0.083,0.073,-9.453
44834,0.047,-0.038,9.833,0.00,0.00,0.00,100.22,-0.017,0.144,-9.404
44844,0.045,-0.019,9.838,0.00,0.00,0.00,100.22,-0.083,0.095,-9.404
44854,0.047,-0.027,9.848,0.00,0.00,0.00,100.22,-0.058,0.078,-9.463
44864,0.037,-0.024,9.863,0.00,0.00,0.00,100.22,-0.061,0.061,-9.421
44874,0.047,-0.040,9.859,0.00,0.00,0.00,100.22,-0.078,0.083,-9.414
44884,0.040,-0.043,9.847,0.00,0.00,0.00,100.22,-0.034,0.073,-9.433
44894,0.035,-0.040,9.827,0.00,0.00,0.00,100.22,0.002,0.053,-9.451
44905,0.043,-0.040,9.823,0.00,0.00,0.00,100.22,-0.044,0.061,-9.441
44915,0.045,-0.043,9.857,0.00,0.00,0.00,100.22,-0.029,0.098,-9.448
44925,0.049,-0.051,9.859,0.00,0.00,0.00,100.22,-0.017,0.058,-9.448
44935,0.072,-0.046,9.863,0.00,0.00,0.00,100.22,-0.002,0.053,-9.453
44945,0.049,-0.040,9.847,0.00,0.00,0.00,100.22,-0.034,0.044,-9.409
44955,0.043,-0.035,9.828,0.00,0.00,0.00,100.22,0.002,0.085,-9.411
44965,0.038,-0.033,9.836,0.00,0.00,0.00,100.22,-0.031,0.071,-9.443
44975,0.038,-0.016,9.840,0.00,0.00,0.00,100.22,-0.017,0.073,-9.414
44985,0.048,-0.011,9.860,0.00,0.00,0.00,100.22,-0.058,0.125,-9.424
44995,0.033,-0.035,9.836,0.00,0.00,0.00,100.22,-0.029,0.090,-9.419
45006,0.034,-0.031,9.840,0.00,0.00,0.00,100.22,0.002,0.073,-9.473
